host_time_sec,elapsed_sec,stm_tick_ms,stm_time_sec,body_distance,body_velocity,body_roll,body_roll_rate,body_pitch,body_pitch_rate,body_yaw_rate,roll,pitch,yaw,gyro_x,gyro_y,gyro_z,acc_x,acc_y,acc_z,left_hip_pos,left_knee_pos,left_wheel_pos,right_hip_pos,right_knee_pos,right_wheel_pos,left_hip_vel,left_knee_vel,left_wheel_vel,right_hip_vel,right_knee_vel,right_wheel_vel,left_hip_effort,left_knee_effort,left_wheel_effort,right_hip_effort,right_knee_effort,right_wheel_effort,left_hip_absolute,left_calf_absolute,left_leg_length,right_leg_length,right_hip_absolute,right_calf_absolute,left_phi,right_phi,left_phi_rate_raw,right_phi_rate_raw,left_phi_rate_lpf,right_phi_rate_lpf,left_length_rate_raw,right_length_rate_raw,left_length_rate_lpf,right_length_rate_lpf,online_mask,safety_state,last_command_timeout,knee_limit_flag,comm_rx_error_count,comm_crc_error_count,can_error_count
1782555913.0277288,0.0,1782555912779,1782555912.779047,-0.00028645398147821293,0.0,-0.0013422418851405382,0.0,-0.003259730525314808,0.0,0.0,-0.0013422418851405382,-0.003259730525314808,-0.0025086922105401754,0.0,0.0,0.0,0.047885868698358536,0.04309728369116783,9.859701156616211,2.019453763961792,0.7297770977020264,-0.1598827987909317,1.9351301193237305,0.8224787712097168,-0.1623990535736084,0.003195794066414237,0.007989483885467052,0.0,-0.0031957936007529497,-0.007989483885467052,0.0,0.0,0.0,-0.8931179642677307,0.0,0.0,-0.07735667377710342,2.019453763961792,0.7297770977020264,0.32480294642720814,0.3447464241371876,1.9351301193237305,0.8224787712097168,1.2912434158673727,1.3098204476004194,0.00030183622423835357,-0.0002730833334648672,0.00030183622423835357,-0.0002730833334648672,0.0,0.0,0.0,0.0,-1,-1,-1,-1,-1,-1,-1
1782555913.032023,0.004294157028198242,1782555912784,1782555912.7840624,-0.00028645398147821293,0.0,-0.0013422418851405382,0.0,-0.003259730525314808,0.0,0.0,-0.0013422418851405382,-0.003259730525314808,-0.0025086922105401754,0.0,0.0,0.0,0.04309728369116783,0.06704021990299225,9.692100524902344,2.019453763961792,0.7297770977020264,-0.1598827987909317,1.9351327419281006,0.8224787712097168,-0.1623990535736084,0.003195794066414237,0.007989483885467052,0.0,-0.007989483885467052,-0.007989483885467052,0.0,0.0,0.0,0.0140648502856493,0.0,0.0,-0.07735667377710342,2.019453763961792,0.7297770977020264,0.32480294642720814,0.3447461478121999,1.9351327419281006,0.8224787712097168,1.2912434158673727,1.3098215578215613,0.0002867444130264359,-0.0002483604599306937,0.0002867444130264359,-0.0002483604599306937,0.0,-5.509559807381259e-05,0.0,-5.509559807381257e-06,-1,-1,-1,-1,-1,-1,-1
1782555913.032497,0.0047681331634521484,1782555912789,1782555912.7890851,-0.00028645398147821293,0.0,-0.0013422418851405382,0.0,-0.003259730525314808,0.0,0.0,-0.0013422418851405382,-0.003259730525314808,-0.0025086922105401754,0.0,0.0,0.0,-0.023942934349179268,-0.047885868698358536,9.878854751586914,2.019489288330078,0.7297683954238892,-0.1598827987909317,1.9351327419281006,0.8224787712097168,-0.1623990535736084,0.004793690517544746,0.004793691448867321,0.0,-0.007989483885467052,-0.007989483885467052,0.0,0.0,0.0,-0.886085569858551,0.0,0.0,-0.07735667377710342,2.019489288330078,0.7297683954238892,0.3247976481618403,0.3447461478121999,1.9351327419281006,0.8224787712097168,1.2912530066894512,1.3098215578215613,0.0003678762055876291,-0.00023594243693415902,0.0003678762055876291,-0.00023594243693415902,-0.001054850506732471,0.0,-0.00010548505067324708,-4.958603826643131e-06,-1,-1,-1,-1,-1,-1,-1
1782555913.0328357,0.005106925964355469,1782555912794,1782555912.7940712,-0.00028645398147821293,0.0,-0.0013422418851405382,0.0,-0.003259730525314808,0.0,0.0,-0.0013422418851405382,-0.003259730525314808,-0.0025086922105401754,0.0,0.0,0.0,0.062251631170511246,0.0,9.773506164550781,2.019489288330078,0.7297683954238892,-0.1598827987909317,1.935189962387085,0.8224273920059204,-0.1623990535736084,0.004793690517544746,0.004793691448867321,0.0,0.011185277253389359,-0.015978967770934105,0.0,0.0,0.0,0.021097276359796524,0.0,0.0,0.6188533902168274,2.019489288330078,0.7297683954238892,0.3247976481618403,0.3447347049374022,1.935189962387085,0.8224273920059204,1.2912530066894512,1.3098161515829012,0.00034948239530824764,-0.0002783589822727348,0.00034948239530824764,-0.0002783589822727348,0.0,-0.0022949789860623156,-9.493654560592237e-05,-0.00023396064205021032,-1,-1,-1,-1,-1,-1,-1
1782555913.0352163,0.00748753547668457,1782555912799,1782555912.7990713,-0.00028645398147821293,0.0,-0.0013422418851405382,0.0,-0.003259730525314808,0.0,0.0,-0.0013422418851405382,-0.003259730525314808,-0.0025086922105401754,0.0,0.0,0.0,0.009577174670994282,-0.014365761540830135,9.840546607971191,2.019489288330078,0.7298129796981812,-0.1598827987909317,1.935189962387085,0.8224273920059204,-0.1623990535736084,0.004793690517544746,0.01438107155263424,0.0,0.011185277253389359,-0.015978967770934105,0.0,0.0,0.0,0.021097276359796524,0.0,0.0,0.8087288737297058,2.019489288330078,0.7298129796981812,0.3248029892696963,0.3447347049374022,1.935189962387085,0.8224273920059204,1.2912791499403762,1.3098161515829012,0.0005934348012143346,-0.00026444103315909805,0.0005934348012143346,-0.00026444103315909805,0.0010681971221069458,0.0,2.137682116536442e-05,-0.00021056457784518929,-1,-1,-1,-1,-1,-1,-1
1782555913.0387125,0.010983705520629883,1782555912804,1782555912.8040764,-0.00028645398147821293,0.0,-0.0013422418851405382,0.0,-0.003259730525314808,0.0,0.0,-0.0013422418851405382,-0.003259730525314808,-0.0025086922105401754,0.0,0.0,0.0,0.04309728369116783,0.019154349341988564,9.778294563293457,2.0194485187530518,0.7298129796981812,-0.1598827987909317,1.9351164102554321,0.8225778341293335,-0.1623990535736084,0.0015978968003764749,0.01438107155263424,0.0,-0.011185277253389359,0.023968450725078583,0.0,0.0,0.0,0.021097276359796524,0.0,0.0,0.10548637807369232,2.0194485187530518,0.7298129796981812,0.3248078732473004,0.34475830556404985,1.9351164102554321,0.8225778341293335,1.291262286647719,1.3098717707060163,0.00039530267949050807,0.000304403155778682,0.00039530267949050807,0.000304403155778682,0.000975796065396575,0.004715295705743954,0.00011681874558848546,0.00028202145051372493,-1,-1,-1,-1,-1,-1,-1
1782555913.0447595,0.017030715942382812,1782555912809,1782555912.809084,-0.00028645398147821293,0.0,-0.0013422418851405382,0.0,-0.003259730525314808,0.0,0.0,-0.0013422418851405382,-0.003259730525314808,-0.0025086922105401754,0.0,0.0,0.0,0.023942934349179268,-0.019154349341988564,9.898009300231934,2.0194485187530518,0.7297191619873047,-0.1598827987909317,1.9351164102554321,0.8224266767501831,-0.1623990535736084,0.0015978968003764749,0.0015978968003764749,0.0,-0.011185277253389359,-0.023968450725078583,0.0,0.0,0.0,0.021097276359796524,0.0,0.0,0.29536187648773193,2.0194485187530518,0.7297191619873047,0.3247966341905249,0.34474237968642124,1.9351164102554321,0.8224266767501831,1.2912072740745486,1.3097846027090663,-0.0001737636393123503,-0.0005811904683714784,-0.0001737636393123503,-0.0005811904683714784,-0.002244442260144331,-0.0031804014779404726,-0.00011930735498479616,-6.422084233169477e-05,-1,-1,-1,-1,-1,-1,-1
1782555913.0485306,0.020801782608032227,1782555912814,1782555912.8140566,-0.00028645398147821293,0.0,-0.0013422418851405382,0.0,-0.003259730525314808,0.0,0.0,-0.0013422418851405382,-0.003259730525314808,-0.0025086922105401754,0.0,0.0,0.0,0.05267446115612984,-0.07661739736795425,9.706465721130371,2.0194361209869385,0.7297191619873047,-0.1598827987909317,1.9351330995559692,0.8224266767501831,-0.1623990535736084,-0.003195794764906168,0.0015978968003764749,0.0,-0.0031957936007529497,-0.023968450725078583,0.0,0.0,0.0,-0.42897793650627136,0.0,0.0,-0.40788066387176514,2.0194361209869385,0.7297191619873047,0.32479811944236164,0.3447406211908885,1.9351330995559692,0.8224266767501831,1.291202146108841,1.3097916677171704,-0.0002166366767918297,-0.0004810929439195239,-0.0002166366767918297,-0.0004810929439195239,0.00029868138849555937,-0.0003536301887602067,-7.750848063676062e-05,-9.316177697454595e-05,-1,-1,-1,-1,-1,-1,-1
1782555913.053873,0.02614426612854004,1782555912819,1782555912.819088,-0.00028645398147821293,0.0,-0.0013422418851405382,0.0,-0.003259730525314808,0.0,0.0,-0.0013422418851405382,-0.003259730525314808,-0.0025086922105401754,0.0,0.0,0.0,0.009577174670994282,0.0,9.898009300231934,2.0194361209869385,0.7296594381332397,-0.1598827987909317,1.9351330995559692,0.8225123882293701,-0.1623990535736084,-0.003195794764906168,-0.01757686398923397,0.0,-0.0031957936007529497,0.004793690517544746,0.0,0.0,0.0,0.48523736000061035,0.0,0.0,-0.7313722372055054,2.0194361209869385,0.7296594381332397,0.32479096441593447,0.344749652072574,1.9351330995559692,0.8225123882293701,1.2911671251533683,1.3098410951946748,-0.0005538159631734234,3.413367685234722e-05,-0.0005538159631734234,3.413367685234722e-05,-0.0014220895590013043,0.0017949231472831984,-0.00021196658847321496,9.564671545122844e-05,-1,-1,-1,-1,-1,-1,-1
1782555913.0586462,0.03091740608215332,1782555912824,1782555912.8240774,-0.00028645398147821293,0.0,-0.0013422418851405382,0.0,-0.003259730525314808,0.0,0.0,-0.0013422418851405382,-0.003259730525314808,-0.0025086922105401754,0.0,0.0,0.0,0.1340804398059845,-0.03830869868397713,9.677735328674316,2.0193865299224854,0.7296594381332397,-0.1598827987909317,1.9351584911346436,0.8225123882293701,-0.1623990535736084,-0.015978967770934105,-0.01757686398923397,0.0,0.001597897382453084,0.004793690517544746,0.0,0.0,0.0,-0.42897793650627136,0.0,0.0,1.7229441404342651,2.0193865299224854,0.7296594381332397,0.32479690553551444,0.3447469767854263,1.9351584911346436,0.8225123882293701,1.291146613381326,1.3098518441768219,-0.000731689074800962,0.00014015063540492845,-0.000731689074800962,0.00014015063540492845,0.0011907517378855626,-0.0005361957081643461,-7.169475583733723e-05,3.246247308967099e-05,-1,-1,-1,-1,-1,-1,-1
1782555913.0640993,0.03637051582336426,1782555912829,1782555912.8291018,-0.00028645398147821293,0.0,-0.0013422418851405382,0.0,-0.003259730525314808,0.0,0.0,-0.0013422418851405382,-0.003259730525314808,-0.0025086922105401754,0.0,0.0,0.0,-0.04309728369116783,-0.07182881236076355,9.931529998779297,2.0193865299224854,0.7296594381332397,-0.1598827987909317,1.9351584911346436,0.8225123882293701,-0.1623990535736084,-0.015978967770934105,-0.01757686398923397,0.0,0.001597897382453084,0.004793690517544746,0.0,0.0,0.0,-0.42897793650627136,0.0,0.0,1.7229441404342651,2.0193865299224854,0.7296596765518188,0.3247969340981214,0.3447520258734817,1.9351584911346436,0.8225603103637695,1.2911467531852379,1.3098794794745459,-0.0006937133804174741,0.00040815221387690117,-0.0006937133804174741,0.00040815221387690117,5.684742173541482e-06,0.0010049070051729027,-6.395680603624936e-05,0.00012970692629799414,-1,-1,-1,-1,-1,-1,-1
1782555913.0687118,0.040982961654663086,1782555912834,1782555912.8340921,-0.00028645398147821293,0.0,-0.0013422418851405382,0.0,-0.003259730525314808,0.0,0.0,-0.0013422418851405382,-0.003259730525314808,-0.0025086922105401754,0.0,0.0,0.0,0.06704021990299225,-0.004788587335497141,9.739986419677734,2.0194597244262695,0.7296596765518188,-0.1598827987909317,1.9351341724395752,0.8225603103637695,-0.1623990535736084,0.0015978981973603368,-0.03195793554186821,0.0,0.003195792203769088,5.820766091346741e-10,0.0,0.0,0.0,0.021097276359796524,0.0,0.0,-0.5907237529754639,2.0194597244262695,0.7296596765518188,0.3247881651674537,0.3447545880233437,1.9351341724395752,0.8225603103637695,1.2911770277179218,1.3098691846207409,-0.0003556963045498501,0.00028459676864649023,-0.0003556963045498501,0.00028459676864649023,-0.001757181261060855,0.000513421977677459,-0.0002332792515387099,0.00016807843143594063,-1,-1,-1,-1,-1,-1,-1
1782555913.073808,0.046079158782958984,1782555912839,1782555912.8391037,-0.00028645398147821293,0.0,-0.0013422418851405382,0.0,-0.003259730525314808,0.0,0.0,-0.0013422418851405382,-0.003259730525314808,-0.0025086922105401754,0.0,0.0,0.0,0.02873152308166027,-0.02873152308166027,9.893220901489258,2.0194597244262695,0.7296596765518188,-0.1598827987909317,1.9351341724395752,0.8225603103637695,-0.1623990535736084,0.0015978981973603368,-0.03195793554186821,0.0,0.003195792203769088,5.820766091346741e-10,0.0,0.0,0.0,0.021097276359796524,0.0,0.0,-0.5907237529754639,2.0194597244262695,0.7297656536102295,0.3248008614139415,0.3447545880233437,1.9351341724395752,0.8225603103637695,1.2912391706924202,1.3098691846207409,0.00028208500570815493,0.0002703669302141657,0.00028208500570815493,0.0002703669302141657,0.002533392836765114,0.0,4.3387957291672456e-05,0.00015127058829234657,-1,-1,-1,-1,-1,-1,-1
1782555913.078213,0.05048418045043945,1782555912844,1782555912.8441198,-0.00028645398147821293,0.0,-0.0013422418851405382,0.0,-0.003259730525314808,0.0,0.0,-0.0013422418851405382,-0.003259730525314808,-0.0025086922105401754,0.0,0.0,0.0,0.02873152308166027,-0.02873152308166027,9.893220901489258,2.0194597244262695,0.7297656536102295,-0.1598827987909317,1.9351341724395752,0.8225603103637695,-0.1623990535736084,0.0015978981973603368,-0.001597895403392613,0.0,0.003195792203769088,5.820766091346741e-10,0.0,0.0,0.0,0.4711725115776062,0.0,0.0,0.6188533902168274,2.0193843841552734,0.7297656536102295,0.3248098867788934,0.34474464057480503,1.9351816177368164,0.8225133419036865,1.2912080081188062,1.3098621842615394,-4.264547956839537e-05,0.0001870695195844968,-4.264547956839537e-05,0.0001870695195844968,0.001799283441190411,-0.00198310866464657,0.00021897750568154628,-6.216733700154504e-05,-1,-1,-1,-1,-1,-1,-1
1782555913.0860393,0.058310508728027344,1782555912849,1782555912.8491254,-0.00028645398147821293,0.0,-0.0013422418851405382,0.0,-0.003259730525314808,0.0,0.0,-0.0013422418851405382,-0.003259730525314808,-0.0025086922105401754,0.0,0.0,0.0,0.019154349341988564,-0.02873152308166027,9.874066352844238,2.0193843841552734,0.7296419143676758,-0.1598827987909317,1.9351816177368164,0.8225483894348145,-0.1623990535736084,-0.012783176265656948,-0.020772660151124,0.0,0.011185277253389359,0.02556634694337845,0.0,0.0,0.0,0.021097276359796524,0.0,0.0,0.10548637807369232,2.0193843841552734,0.7296419143676758,0.324795063237906,0.34474833327583176,1.9351816177368164,0.8225483894348145,1.2911354502541446,1.3098823951979113,-0.0007652803929722382,0.00037959937598947897,-0.0007652803929722382,0.00037959937598947897,-0.002961392581922422,0.0007377142504045696,-9.905950307885047e-05,1.7820821739066402e-05,-1,-1,-1,-1,-1,-1,-1
1782555913.0883043,0.06057548522949219,1782555912854,1782555912.854121,-0.00028645398147821293,0.0,-0.0013422418851405382,0.0,-0.003259730525314808,0.0,0.0,-0.0013422418851405382,-0.003259730525314808,-0.0025086922105401754,0.0,0.0,0.0,0.07661739736795425,0.0,9.797449111938477,2.0193843841552734,0.7296419143676758,-0.1598827987909317,1.9351816177368164,0.8225483894348145,-0.1623990535736084,-0.012783176265656948,-0.020772660151124,0.0,0.011185277253389359,0.02556634694337845,0.0,0.0,0.0,0.021097276359796524,0.0,0.0,0.10548637807369232,2.0194694995880127,0.7296419143676758,0.3247848659979638,0.3447491873552266,1.935173511505127,0.8225483894348145,1.2911706553754394,1.3098789635963695,-0.00037465398830129905,0.00032627306043002093,-0.00037465398830129905,0.00032627306043002093,-0.002041250621802265,0.00017096686021120404,-0.0002932786149511919,3.3135425586280166e-05,-1,-1,-1,-1,-1,-1,-1
1782555913.0933666,0.06563782691955566,1782555912859,1782555912.8591228,-0.00028645398147821293,0.0,-0.0013422418851405382,0.0,-0.003259730525314808,0.0,0.0,-0.0013422418851405382,-0.003259730525314808,-0.0025086922105401754,0.0,0.0,0.0,0.07661739736795425,0.0,9.797449111938477,2.0194694995880127,0.7296419143676758,-0.1598827987909317,1.935173511505127,0.8225483894348145,-0.1623990535736084,0.0031957936007529497,-0.020772660151124,0.0,0.006391587201505899,0.02556634694337845,0.0,0.0,0.0,0.021097276359796524,0.0,0.0,-0.07735667377710342,2.0194694995880127,0.7297561168670654,0.32479854787814133,0.34474896127592497,1.935173511505127,0.8225462436676025,1.2912376217659043,1.3098777261945713,0.0003135038490908532,0.00029758980134642044,0.0003135038490908532,0.00029758980134642044,0.0027354003887760632,-4.5199738742178235e-05,9.589285421533528e-06,2.5301909153434327e-05,-1,-1,-1,-1,-1,-1,-1
1782555913.1006432,0.07291436195373535,1782555912864,1782555912.8641264,-0.00028645398147821293,0.0,-0.0013422418851405382,0.0,-0.003259730525314808,0.0,0.0,-0.0013422418851405382,-0.003259730525314808,-0.0025086922105401754,0.0,0.0,0.0,0.033520109951496124,-0.09577173739671707,9.845335006713867,2.019404888153076,0.7297561168670654,-0.1598827987909317,1.9350746870040894,0.8225462436676025,-0.1623990535736084,-0.007989483885467052,0.0031957936007529497,0.0,-0.007989483885467052,0.011185277253389359,0.0,0.0,0.0,-0.4219455122947693,0.0,0.0,-0.5907237529754639,2.019404888153076,0.7297561168670654,0.3248062881110271,0.3447593730817104,1.9350746870040894,0.8225462436676025,1.2912108970021439,1.3098358906969338,3.0778140746969115e-05,-0.00013533608668835626,3.0778140746969115e-05,-0.00013533608668835626,0.0015469047388197406,0.0020808252086070805,0.0001633208307613542,0.0002308542390987989,-1,-1,-1,-1,-1,-1,-1
1782555913.1032426,0.07551383972167969,1782555912869,1782555912.8691275,-0.00028645398147821293,0.0,-0.0013422418851405382,0.0,-0.003259730525314808,0.0,0.0,-0.0013422418851405382,-0.003259730525314808,-0.0025086922105401754,0.0,0.0,0.0,0.033520109951496124,-0.09577173739671707,9.845335006713867,2.019404888153076,0.7297561168670654,-0.1598827987909317,1.9350746870040894,0.8225462436676025,-0.1623990535736084,-0.007989483885467052,0.0031957936007529497,0.0,-0.007989483885467052,0.011185277253389359,0.0,0.0,0.0,-0.4219455122947693,0.0,0.0,-0.5907237529754639,2.019404888153076,0.7296911478042603,0.3247985050346087,0.3447394530344698,1.9350746870040894,0.822357177734375,1.2911728006254055,1.3097268618781006,-0.00035164316841463885,-0.0012186246097459841,-0.00035164316841463885,-0.0012186246097459841,-0.0015562828257919697,-0.003983158553654966,-8.63953489397816e-06,-0.0001905470401765775,-1,-1,-1,-1,-1,-1,-1
1782555913.1107628,0.08303403854370117,1782555912874,1782555912.874118,-0.00028645398147821293,0.0,-0.0013422418851405382,0.0,-0.003259730525314808,0.0,0.0,-0.0013422418851405382,-0.003259730525314808,-0.0025086922105401754,0.0,0.0,0.0,0.009577174670994282,0.07182881236076355,9.821392059326172,2.019467353820801,0.7296911478042603,-0.1598827987909317,1.9351836442947388,0.822357177734375,-0.1623990535736084,-0.0015978968003764749,-0.003195793367922306,0.0,0.012783174403011799,-0.019174762070178986,0.0,0.0,0.0,0.4782049357891083,0.0,0.0,-0.07735667377710342,2.019467353820801,0.7296911478042603,0.3247910215430067,0.3447279718930573,1.9351836442947388,0.822357177734375,1.2911986375965576,1.3097729859106835,-7.520349171768738e-05,-0.0006955822232333963,-7.520349171768738e-05,-0.0006955822232333963,-0.0014995241142883606,-0.0023005636036164665,-0.00015772799283341637,-0.0004015486965205664,-1,-1,-1,-1,-1,-1,-1
1782555913.1138232,0.08609437942504883,1782555912879,1782555912.8791285,-0.00028645398147821293,0.0,-0.0013422418851405382,0.0,-0.003259730525314808,0.0,0.0,-0.0013422418851405382,-0.003259730525314808,-0.0025086922105401754,0.0,0.0,0.0,0.05267446115612984,-0.03830869868397713,9.768717765808105,2.019467353820801,0.7297580242156982,-0.1598827987909317,1.9351836442947388,0.8225470781326294,-0.1623990535736084,-0.0015978968003764749,0.004793691448867321,0.0,0.012783174403011799,0.019174762070178986,0.0,0.0,0.0,0.021097276359796524,0.0,0.0,0.10548637807369232,2.019467353820801,0.7297580242156982,0.3247990334374736,0.34474798159447356,1.9351836442947388,0.8225470781326294,1.2912378526611616,1.309882496907231,0.00031991459266386533,0.00043209307823686126,0.00031991459266386533,0.00043209307823686126,0.0015990635741221964,0.003993660275468281,1.7951163862144873e-05,3.7972200678318196e-05,-1,-1,-1,-1,-1,-1,-1
1782555913.1190581,0.09132933616638184,1782555912884,1782555912.884127,-0.00028645398147821293,0.0,-0.0013422418851405382,0.0,-0.003259730525314808,0.0,0.0,-0.0013422418851405382,-0.003259730525314808,-0.0025086922105401754,0.0,0.0,0.0,-0.014365761540830135,0.03830869868397713,9.845335006713867,2.019467353820801,0.7297580242156982,-0.1598827987909317,1.9351836442947388,0.8225470781326294,-0.1623990535736084,-0.0015978968003764749,0.004793691448867321,0.0,0.012783174403011799,0.019174762070178986,0.0,0.0,0.0,0.021097276359796524,0.0,0.0,0.10548637807369232,2.0194506645202637,0.7297580242156982,0.324801032785795,0.34474962695275935,1.9351680278778076,0.8225470781326294,1.2912309496068215,1.3098758860274846,0.0002348701450322653,0.00034436222151237113,0.0002348701450322653,0.00034436222151237113,0.00039999402154147296,0.00032917399663720683,5.615544963007767e-05,6.709238027420705e-05,-1,-1,-1,-1,-1,-1,-1
1782555913.1241531,0.09642434120178223,1782555912889,1782555912.889091,-0.00028645398147821293,0.0,-0.0013422418851405382,0.0,-0.003259730525314808,0.0,0.0,-0.0013422418851405382,-0.003259730525314808,-0.0025086922105401754,0.0,0.0,0.0,0.0,-0.05746304616332054,9.787872314453125,2.0194506645202637,0.7297202348709106,-0.1598827987909317,1.9351680278778076,0.8224465847015381,-0.1623990535736084,-0.0015978968003764749,-0.009587381035089493,0.0,0.0015978968003764749,-1.0477378964424133e-09,0.0,0.0,0.0,0.0140648502856493,0.0,0.0,-0.21800518035888672,2.0194506645202637,0.7297202348709106,0.32479650565854673,0.3447390385248671,1.9351680278778076,0.8224465847015381,1.2912087907239573,1.3098179341646572,-7.482963697242944e-08,-0.0002565920328497606,-7.482963697242944e-08,-0.0002565920328497606,-0.0009119709872637404,-0.0021329948351278835,-4.065719405930411e-05,-0.00015291634126600196,-1,-1,-1,-1,-1,-1,-1
1782555913.1287293,0.10100054740905762,1782555912894,1782555912.8941274,-0.00028645398147821293,0.0,-0.0013422418851405382,0.0,-0.003259730525314808,0.0,0.0,-0.0013422418851405382,-0.003259730525314808,-0.0025086922105401754,0.0,0.0,0.0,0.0,-0.05746304616332054,9.787872314453125,2.0194506645202637,0.7297202348709106,-0.1598827987909317,1.9351680278778076,0.8224465847015381,-0.1623990535736084,-0.0015978968003764749,-0.009587381035089493,0.0,0.0015978968003764749,-1.0477378964424133e-09,0.0,0.0,0.0,0.0140648502856493,0.0,0.0,-0.21800518035888672,2.019444704055786,0.7297202348709106,0.32479721972394476,0.34474150044158497,1.9351446628570557,0.8224465847015381,1.2912063253574586,1.3098080431661052,-2.454563624288226e-05,-0.00034195380349258864,-2.454563624288226e-05,-0.00034195380349258864,0.0001417822076894429,0.0004888291581831182,-2.241325388442941e-05,-8.874179132108995e-05,-1,-1,-1,-1,-1,-1,-1
1782555913.1335478,0.1058189868927002,1782555912899,1782555912.8991234,-0.00028645398147821293,0.0,-0.0013422418851405382,0.0,-0.003259730525314808,0.0,0.0,-0.0013422418851405382,-0.003259730525314808,-0.0025086922105401754,0.0,0.0,0.0,0.062251631170511246,0.023942934349179268,9.816603660583496,2.019444704055786,0.7297202348709106,-0.1598827987909317,1.9351446628570557,0.8224465847015381,-0.1623990535736084,0.0015978969167917967,-0.009587381035089493,0.0,-0.001597897382453084,-1.0477378964424133e-09,0.0,0.0,0.0,0.48523736000061035,0.0,0.0,2.6723215579986572,2.019444704055786,0.7297155857086182,0.3247966627531744,0.3447446280144211,1.9351446628570557,0.8224762678146362,1.2912035991812292,1.309825160636999,-5.0601608698923363e-05,-0.00015354645777060724,-5.0601608698923363e-05,-0.00015354645777060724,-0.00011148197231740932,0.0006260076953834614,-3.13201257277274e-05,-1.7266842650634837e-05,-1,-1,-1,-1,-1,-1,-1
1782555913.1393418,0.11161303520202637,1782555912904,1782555912.9041436,-0.00028645398147821293,0.0,-0.0013422418851405382,0.0,-0.003259730525314808,0.0,0.0,-0.0013422418851405382,-0.003259730525314808,-0.0025086922105401754,0.0,0.0,0.0,0.023942934349179268,-0.06704021990299225,9.883644104003906,2.01944637298584,0.7297155857086182,-0.1598827987909317,1.9351892471313477,0.8224762678146362,-0.1623990535736084,-0.0,-0.006391586735844612,0.0,0.009587381035089493,0.0015978955198079348,0.0,0.0,0.0,0.021097276359796524,0.0,0.0,-0.5907237529754639,2.01944637298584,0.7297155857086182,0.3247964628145338,0.34473993034694445,1.9351892471313477,0.8224762678146362,1.2912042894835827,1.3098440343169497,-4.119587420912422e-05,4.211935077896335e-05,-4.119587420912422e-05,4.211935077896335e-05,-3.982729104324173e-05,-0.000935763938444554,-3.2170842259278834e-05,-0.00010911655223002674,-1,-1,-1,-1,-1,-1,-1
1782555913.1441581,0.11642932891845703,1782555912909,1782555912.9091196,-0.00028645398147821293,0.0,-0.0013422418851405382,0.0,-0.003259730525314808,0.0,0.0,-0.0013422418851405382,-0.003259730525314808,-0.0025086922105401754,0.0,0.0,0.0,0.02873152308166027,0.05746304616332054,9.783082962036133,2.01944637298584,0.7297133207321167,-0.1598827987909317,1.9351892471313477,0.8226039409637451,-0.1623990535736084,-0.0,-0.004793690517544746,0.0,0.009587381035089493,0.019174762070178986,0.0,0.0,0.0,-0.43601036071777344,0.0,0.0,0.29536187648773193,2.01944637298584,0.7297133207321167,0.3247961914688849,0.34475338231196173,1.9351892471313477,0.8226039409637451,1.2912029613457057,1.3099176598612532,-5.2480147020240375e-05,0.0007797439322127748,-5.2480147020240375e-05,0.0007797439322127748,-5.453050359546322e-05,0.002703350614721986,-3.4406808392897275e-05,0.0001721301644651745,-1,-1,-1,-1,-1,-1,-1
1782555913.1511796,0.12345075607299805,1782555912914,1782555912.9141395,-0.00028645398147821293,0.0,-0.0013422418851405382,0.0,-0.003259730525314808,0.0,0.0,-0.0013422418851405382,-0.003259730525314808,-0.0025086922105401754,0.0,0.0,0.0,0.009577174670994282,-0.019154349341988564,9.802238464355469,2.0193984508514404,0.7297133207321167,-0.1598827987909317,1.9351803064346313,0.8226039409637451,-0.1623990535736084,-0.015978967770934105,-0.004793690517544746,0.0,0.004793690517544746,0.019174762070178986,0.0,0.0,0.0,-0.42897793650627136,0.0,0.0,0.6188533902168274,2.0193984508514404,0.7297133207321167,0.32480193248538103,0.3447543242749208,1.9351803064346313,0.8226039409637451,1.2911831397429967,1.3099138749863581,-0.0002472956464818072,0.0007030562608424323,-0.0002472956464818072,0.0007030562608424323,0.0011436508408374066,0.00018764564270302707,8.339895653013309e-05,0.00017368171228895977,-1,-1,-1,-1,-1,-1,-1
1782555913.1540792,0.12635040283203125,1782555912919,1782555912.9191139,-0.00028645398147821293,0.0,-0.0013422418851405382,0.0,-0.003259730525314808,0.0,0.0,-0.0013422418851405382,-0.003259730525314808,-0.0025086922105401754,0.0,0.0,0.0,0.06704021990299225,0.023942934349179268,9.840546607971191,2.0193984508514404,0.7296723127365112,-0.1598827987909317,1.9351803064346313,0.8225260972976685,-0.1623990535736084,-0.015978967770934105,-0.019174762070178986,0.0,0.004793690517544746,0.0015978969167917967,0.0,0.0,0.0,0.4711725115776062,0.0,0.0,0.10548637807369232,2.0193984508514404,0.7296723127365112,0.3247970197859154,0.3447461226917179,1.9351803064346313,0.8225260972976685,1.291159093525907,1.3098689848386915,-0.0004766322266106103,0.00021668861383103698,-0.0004766322266106103,0.00021668861383103698,-0.0009876032888922702,-0.0016487698060929264,-2.3701268012107227e-05,-8.563439549228808e-06,-1,-1,-1,-1,-1,-1,-1
1782555913.1587222,0.13099336624145508,1782555912924,1782555912.9241507,-0.00028645398147821293,0.0,-0.0013422418851405382,0.0,-0.003259730525314808,0.0,0.0,-0.0013422418851405382,-0.003259730525314808,-0.0025086922105401754,0.0,0.0,0.0,0.04309728369116783,-0.12450326234102249,9.76392936706543,2.0194733142852783,0.7296723127365112,-0.1598827987909317,1.9351669549942017,0.8225260972976685,-0.1623990535736084,0.0015978968003764749,-0.019174762070178986,0.0,0.0,0.0015978969167917967,0.0,0.0,0.0,0.03516212850809097,0.0,0.0,0.10548637807369232,2.0194733142852783,0.7296723127365112,0.3247880509115002,0.3447475294313495,1.9351669549942017,0.8225260972976685,1.2911900583568128,1.30986333280058,-0.0001454165526852534,0.00014974709694387224,-0.0001454165526852534,0.00014974709694387224,-0.0017806582332288165,0.0002792906212175804,-0.0001993969645337781,2.0221966527452103e-05,-1,-1,-1,-1,-1,-1,-1
1782555913.1647086,0.1369798183441162,1782555912929,1782555912.929138,-0.00028645398147821293,0.0,-0.0013422418851405382,0.0,-0.003259730525314808,0.0,0.0,-0.0013422418851405382,-0.003259730525314808,-0.0025086922105401754,0.0,0.0,0.0,0.009577174670994282,-0.019154349341988564,9.845335006713867,2.0194733142852783,0.7297681570053101,-0.1598827987909317,1.9351669549942017,0.8225603103637695,-0.1623990535736084,0.0015978968003764749,-0.003195793367922306,0.0,0.0,0.01438107155263424,0.0,0.0,0.0,0.021097276359796524,0.0,0.0,-0.07735667377710342,2.0194733142852783,0.7297681570053101,0.32479953327661104,0.34475113413317726,1.9351669549942017,0.8225603103637695,1.2912462596888523,1.3098830624808886,0.0004253055412717289,0.00034006134128667975,0.0004253055412717289,0.00034006134128667975,0.002302348690785276,0.000722784936177052,5.077760099812725e-05,9.047826349241208e-05,-1,-1,-1,-1,-1,-1,-1
1782555913.1706917,0.14296293258666992,1782555912934,1782555912.934159,-0.00028645398147821293,0.0,-0.0013422418851405382,0.0,-0.003259730525314808,0.0,0.0,-0.0013422418851405382,-0.003259730525314808,-0.0025086922105401754,0.0,0.0,0.0,0.08140598237514496,0.009577174670994282,9.840546607971191,2.0194616317749023,0.7297681570053101,-0.1598827987909317,1.9351744651794434,0.8225603103637695,-0.1623990535736084,0.0031957936007529497,-0.003195793367922306,0.0,0.0031957936007529497,0.01438107155263424,0.0,0.0,0.0,0.03516212850809097,0.0,0.0,0.10548637807369232,2.0194616317749023,0.7297681570053101,0.32480093281890005,0.3447503428656053,1.9351744651794434,0.8225603103637695,1.2912414275495718,1.3098862417653958,0.0003559218854980275,0.000354717547075507,0.0003559218854980275,0.000354717547075507,0.0002787324701301428,-0.00015758863922893108,7.35730879113288e-05,6.567157322027778e-05,-1,-1,-1,-1,-1,-1,-1
1782555913.173801,0.1460721492767334,1782555912939,1782555912.9391687,-0.00028645398147821293,0.0,-0.0013422418851405382,0.0,-0.003259730525314808,0.0,0.0,-0.0013422418851405382,-0.003259730525314808,-0.0025086922105401754,0.0,0.0,0.0,0.03830869868397713,0.05746304616332054,9.759140968322754,2.0194616317749023,0.729830265045166,-0.1598827987909317,1.9351744651794434,0.8225760459899902,-0.1623990535736084,0.0031957936007529497,0.011185277253389359,0.0,0.0031957936007529497,0.020772660151124,0.0,0.0,0.0,0.4782049357891083,0.0,0.0,0.6188533902168274,2.0194616317749023,0.729830265045166,0.32480837306218385,0.34475200075411905,1.9351744651794434,0.8225760459899902,1.291277846213166,1.3098953160305686,0.0007016281147385435,0.00042755381457786556,0.0007016281147385435,0.00042755381457786556,0.0014851819039713367,0.0003309389122777033,0.00021473396951732958,9.219830712602032e-05,-1,-1,-1,-1,-1,-1,-1
1782555913.1793725,0.1516437530517578,1782555912944,1782555912.9441807,-0.00028645398147821293,0.0,-0.0013422418851405382,0.0,-0.003259730525314808,0.0,0.0,-0.0013422418851405382,-0.003259730525314808,-0.0025086922105401754,0.0,0.0,0.0,-0.009577174670994282,-0.1388690322637558,9.864489555358887,2.0194358825683594,0.729830265045166,-0.1598827987909317,1.9351744651794434,0.8225760459899902,-0.1623990535736084,-0.004793690517544746,0.011185277253389359,0.0,0.001597898080945015,0.020772660151124,0.0,0.0,0.0,0.021097276359796524,0.0,0.0,0.10548637807369232,2.0194358825683594,0.729830265045166,0.3248114576036883,0.34475200075411905,1.9351744651794434,0.8225760459899902,1.2912671956511323,1.3098953160305686,0.0005603018939420242,0.00040617612384897226,0.0005603018939420242,0.00040617612384897226,0.0006154269227587397,0.0,0.0002548032648414706,8.29784764134183e-05,-1,-1,-1,-1,-1,-1,-1
1782555913.1869538,0.1592249870300293,1782555912949,1782555912.9491808,-0.00028645398147821293,0.0,-0.0013422418851405382,0.0,-0.003259730525314808,0.0,0.0,-0.0013422418851405382,-0.003259730525314808,-0.0025086922105401754,0.0,0.0,0.0,0.09577173739671707,0.07182881236076355,9.7926607131958,2.0194358825683594,0.7297537326812744,-0.1598827987909317,1.9351744651794434,0.822502613067627,-0.1623990535736084,-0.004793690517544746,0.003195793367922306,0.0,0.001597898080945015,0.003195794764906168,0.0,0.0,0.0,0.4711725115776062,0.0,0.0,0.10548637807369232,2.0194358825683594,0.7297537326812744,0.32480228950779483,0.34474426376276535,1.9351744651794434,0.822502613067627,1.2912223190005856,1.3098529693604835,8.353056499245485e-05,-3.7589691033522324e-05,8.353056499245485e-05,-3.7589691033522324e-05,-0.001833577211440887,-0.001547362854415254,4.596521721323489e-05,-8.005565666944893e-05,-1,-1,-1,-1,167124,1,-1
1782555913.1898217,0.162092924118042,1782555912954,1782555912.9541895,-0.00028645398147821293,0.0,-0.0013422418851405382,0.0,-0.003259730525314808,0.0,0.0,-0.0013422418851405382,-0.003259730525314808,-0.0025086922105401754,0.0,0.0,0.0,0.03830869868397713,-0.1340804398059845,9.816603660583496,2.019489288330078,0.7297537326812744,-0.1598827987909317,1.9351285696029663,0.822502613067627,-0.1623990535736084,0.003195793367922306,0.003195793367922306,0.0,0.0,0.003195794764906168,0.0,0.0,0.0,0.0140648502856493,0.0,0.0,-0.5907237529754639,2.019489288330078,0.7297537326812744,0.32479589156006594,0.3447490994355442,1.9351285696029663,0.822502613067627,1.2912444087476993,1.309833540482424,0.0002998784207053456,-0.00022967084093817396,0.0002998784207053456,-0.00022967084093817396,-0.001277367562407671,0.0009654551446639989,-8.636806074885566e-05,2.4495423463895827e-05,-1,-1,-1,-1,167124,1,-1
1782555913.1936514,0.1659226417541504,1782555912959,1782555912.9591935,-0.00028645398147821293,0.0,-0.0013422418851405382,0.0,-0.003259730525314808,0.0,0.0,-0.0013422418851405382,-0.003259730525314808,-0.0025086922105401754,0.0,0.0,0.0,-0.03830869868397713,0.09577173739671707,9.778294563293457,2.019489288330078,0.7297890186309814,-0.1598827987909317,1.9351285696029663,0.8225666284561157,-0.1623990535736084,0.003195793367922306,0.004793690517544746,0.0,0.0,0.01757686585187912,0.0,0.0,0.0,0.4782049357891083,0.0,0.0,-0.40788066387176514,2.019489288330078,0.7297890186309814,0.3248001188007135,0.34475584396097897,1.9351285696029663,0.8225666284561157,1.291265099706291,1.3098704562060017,0.0004916119184062627,0.0001506449237508858,0.0004916119184062627,0.0001506449237508858,0.0008447842746860327,0.001347845912382858,6.747172794633157e-06,0.000156830472355792,-1,-1,-1,-1,167124,1,-1
1782555913.1992753,0.17154645919799805,1782555912964,1782555912.9641557,-0.00028645398147821293,0.0,-0.0013422418851405382,0.0,-0.003259730525314808,0.0,0.0,-0.0013422418851405382,-0.003259730525314808,-0.0025086922105401754,0.0,0.0,0.0,0.08619456738233566,-0.08140598237514496,9.869277954101562,2.0194523334503174,0.7297890186309814,-0.1598827987909317,1.9351387023925781,0.8225666284561157,-0.1623990535736084,0.0015978968003764749,0.004793690517544746,0.0,-0.0015978968003764749,0.01757686585187912,0.0,0.0,0.0,0.021097276359796524,0.0,0.0,-0.40788066387176514,2.0194523334503174,0.7297890186309814,0.3248045458732657,0.34475477641475144,1.9351387023925781,0.8225666284561157,1.291249814326488,1.3098747457374489,0.00031300592932518803,0.00018633677641719226,0.00031300592932518803,0.00018633677641719226,0.0008921581758427409,-0.00021513541595682688,9.528827309944391e-05,0.0001196338835245301,-1,-1,-1,-1,167124,1,-1
1782555913.204185,0.17645621299743652,1782555912969,1782555912.9691894,-0.00028645398147821293,0.0,-0.0013422418851405382,0.0,-0.003259730525314808,0.0,0.0,-0.0013422418851405382,-0.003259730525314808,-0.0025086922105401754,0.0,0.0,0.0,0.04309728369116783,0.02873152308166027,9.797449111938477,2.0194523334503174,0.7297360897064209,-0.1598827987909317,1.9351387023925781,0.822481632232666,-0.1623990535736084,0.0015978968003764749,0.0047936891205608845,0.0,-0.0015978968003764749,-0.011185278184711933,0.0,0.0,0.0,-0.43601036071777344,0.0,0.0,-0.5907237529754639,2.0194523334503174,0.7297360897064209,0.3247982051295982,0.3447458212455593,1.9351387023925781,0.822481632232666,1.291218777983483,1.309825730923626,-1.0913424666722559e-05,-0.000309820617666121,-1.0913424666722559e-05,-0.000309820617666121,-0.0012596507614919318,-0.0017790319690834512,-4.020563035969363e-05,-7.023270173626799e-05,-1,-1,-1,-1,167124,1,-1
1782555913.2097695,0.18204069137573242,1782555912974,1782555912.9741952,-0.00028645398147821293,0.0,-0.0013422418851405382,0.0,-0.003259730525314808,0.0,0.0,-0.0013422418851405382,-0.003259730525314808,-0.0025086922105401754,0.0,0.0,0.0,-0.02873152308166027,-0.04309728369116783,9.859701156616211,2.01938533782959,0.7297360897064209,-0.1598827987909317,1.9351574182510376,0.822481632232666,-0.1623990535736084,-0.01438107155263424,0.0047936891205608845,0.0,-0.0015978969167917967,-0.011185278184711933,0.0,0.0,0.0,0.03516212850809097,0.0,0.0,-0.21800518035888672,2.01938533782959,0.7297360897064209,0.32480623098874173,0.3447438492682785,1.9351574182510376,0.822481632232666,1.2911910670732025,1.3098336538533344,-0.0002871669480816595,-0.00021518889669646616,-0.0002871669480816595,-0.00021518889669646616,0.0016033003004869294,-0.00039393561615422865,0.00012414496272496862,-0.00010260299317806405,-1,-1,-1,-1,167124,1,-1
1782555913.2148912,0.1871623992919922,1782555912979,1782555912.9792001,-0.00028645398147821293,0.0,-0.0013422418851405382,0.0,-0.003259730525314808,0.0,0.0,-0.0013422418851405382,-0.003259730525314808,-0.0025086922105401754,0.0,0.0,0.0,0.08140598237514496,-0.004788587335497141,9.739986419677734,2.01938533782959,0.7296595573425293,-0.1598827987909317,1.9351574182510376,0.8224421739578247,-0.1623990535736084,-0.01438107155263424,-0.02077265828847885,0.0,-0.0015978969167917967,-0.02077265828847885,0.0,0.0,0.0,0.021097276359796524,0.0,0.0,-0.21800518035888672,2.01938533782959,0.7296595573425293,0.32479706262979735,0.344739691690923,1.9351574182510376,0.8224421739578247,1.291146190209901,1.3098108992809645,-0.0007211607688752705,-0.0004317640093131897,-0.0007211607688752705,-0.0004317640093131897,-0.0018318828407889048,-0.0008307042364943233,-7.145781762641868e-05,-0.00017541311750968994,-1,-1,-1,-1,167124,1,-1
1782555913.2191672,0.1914384365081787,1782555912984,1782555912.984174,-0.00028645398147821293,0.0,-0.0013422418851405382,0.0,-0.003259730525314808,0.0,0.0,-0.0013422418851405382,-0.003259730525314808,-0.0025086922105401754,0.0,0.0,0.0,0.0,-0.09098315238952637,9.835758209228516,2.01938533782959,0.7296595573425293,-0.1598827987909317,1.9351574182510376,0.8224421739578247,-0.1623990535736084,-0.01438107155263424,-0.02077265828847885,0.0,-0.0015978969167917967,-0.02077265828847885,0.0,0.0,0.0,0.021097276359796524,0.0,0.0,-0.21800518035888672,2.0194835662841797,0.7296595573425293,0.32478529446490906,0.3447445652124832,1.935111165046692,0.8224421739578247,1.291186819152808,1.3097913191027264,-0.00027669996536845633,-0.0006069960645749369,-0.00027669996536845633,-0.0006069960645749369,-0.002365988930285976,0.0009798212527099136,-0.00030091092889237436,-5.9889680487729596e-05,-1,-1,-1,-1,167124,1,-1
1782555913.2235858,0.19585704803466797,1782555912989,1782555912.989194,-0.00028645398147821293,0.0,-0.0013422418851405382,0.0,-0.003259730525314808,0.0,0.0,-0.0013422418851405382,-0.003259730525314808,-0.0025086922105401754,0.0,0.0,0.0,0.014365761540830135,0.02873152308166027,9.81181526184082,2.0194835662841797,0.7298003435134888,-0.1598827987909317,1.935111165046692,0.8224031925201416,-0.1623990535736084,0.007989483885467052,0.011185278184711933,0.0,-0.004793691448867321,-0.022370554506778717,0.0,0.0,0.0,-0.42897793650627136,0.0,0.0,0.10548637807369232,2.0194835662841797,0.7298003435134888,0.3248021609798064,0.3447404579008282,1.935111165046692,0.8224031925201416,1.29126937360183,1.3097688395229332,0.0005594063597832075,-0.0008005507767697097,0.0005594063597832075,-0.0008005507767697097,0.0033599283258142925,-0.0008182053528310312,6.517299657829223e-05,-0.00013572124772205974,-1,-1,-1,-1,167124,1,-1
1782555913.2285674,0.20083856582641602,1782555912994,1782555912.9941738,-0.00028645398147821293,0.0,-0.0013422418851405382,0.0,-0.003259730525314808,0.0,0.0,-0.0013422418851405382,-0.003259730525314808,-0.0025086922105401754,0.0,0.0,0.0,0.014365761540830135,0.02873152308166027,9.81181526184082,2.0194835662841797,0.7298003435134888,-0.1598827987909317,1.935111165046692,0.8224031925201416,-0.1623990535736084,0.007989483885467052,0.011185278184711933,0.0,-0.004793691448867321,-0.022370554506778717,0.0,0.0,0.0,-0.42897793650627136,0.0,0.0,0.10548637807369232,2.0193724632263184,0.7298003435134888,0.324815470285526,0.344739641447495,1.9351189136505127,0.8224031925201416,1.291223418463961,1.309772119700267,7.002507185113863e-05,-0.0007275887310329852,7.002507185113863e-05,-0.0007275887310329852,0.002672632461188658,-0.00016395142821374538,0.0003259189430393287,-0.00013854426577122831,-1,-1,-1,-1,167124,1,-1
1782555913.2336307,0.2059018611907959,1782555912999,1782555912.9992104,-0.00028645398147821293,0.0,-0.0013422418851405382,0.0,-0.003259730525314808,0.0,0.0,-0.0013422418851405382,-0.003259730525314808,-0.0025086922105401754,0.0,0.0,0.0,0.0,-0.019154349341988564,9.821392059326172,2.0193724632263184,0.7296513319015503,-0.1598827987909317,1.9351189136505127,0.822547435760498,-0.1623990535736084,-0.015978967770934105,-0.023968450725078583,0.0,-0.0015978981973603368,0.011185276322066784,0.0,0.0,0.0,0.021097276359796524,0.0,0.0,0.6188533902168274,2.0193724632263184,0.7296513319015503,0.3247976195993452,0.34475483921182754,1.9351189136505127,0.822547435760498,1.29113604178187,1.309855300716585,-0.0008008948023357498,0.00013455749715561582,-0.0008008948023357498,0.00013455749715561582,-0.003544199027253326,0.0030174695257229743,-6.109285398993666e-05,0.0001770571133781919,-1,-1,-1,-1,167124,1,-1
1782555913.2417881,0.21405935287475586,1782555913004,1782555913.004199,-0.00028645398147821293,0.0,-0.0013422418851405382,0.0,-0.003259730525314808,0.0,0.0,-0.0013422418851405382,-0.003259730525314808,-0.0025086922105401754,0.0,0.0,0.0,-0.03830869868397713,0.04309728369116783,9.816603660583496,2.0194122791290283,0.7296513319015503,-0.1598827987909317,1.9351346492767334,0.822547435760498,-0.1623990535736084,-0.006391587201505899,-0.023968450725078583,0.0,-0.007989483885467052,0.011185276322066784,0.0,0.0,0.0,0.03516212850809097,0.0,0.0,0.29536187648773193,2.0194122791290283,0.7296513319015503,0.3247928495998612,0.3447531813589931,1.9351346492767334,0.822547435760498,1.2911525103956014,1.309861962097499,-0.0005957899101256073,0.0001945947164792891,-0.0005957899101256073,0.0001945947164792891,-0.0009561665033352053,-0.0003323235889398953,-0.0001506002189244635,0.0001261190431463832,-1,-1,-1,-1,167124,1,-1
1782555913.2438421,0.21611332893371582,1782555913009,1782555913.0092103,-0.00028645398147821293,0.0,-0.0013422418851405382,0.0,-0.003259730525314808,0.0,0.0,-0.0013422418851405382,-0.003259730525314808,-0.0025086922105401754,0.0,0.0,0.0,0.10056033730506897,-0.023942934349179268,9.821392059326172,2.0194122791290283,0.7297277450561523,-0.1598827987909317,1.9351346492767334,0.8225338459014893,-0.1623990535736084,-0.006391587201505899,-0.006391587201505899,0.0,-0.007989483885467052,0.003195791505277157,0.0,0.0,0.0,0.0140648502856493,0.0,0.0,0.29536187648773193,2.0194122791290283,0.7297277450561523,0.3248020038899197,0.3447517495602292,1.9351346492767334,0.8225338459014893,1.2911973175287639,1.309854125239942,-0.00011894123518204768,0.00010667343253617968,-0.00011894123518204768,0.00010667343253617968,0.0018267222707777878,-0.0002857128922668075,4.713203004576158e-05,8.493584960506414e-05,-1,-1,-1,-1,167124,1,-1
1782555913.2495344,0.22180557250976562,1782555913014,1782555913.0142193,-0.00028645398147821293,0.0,-0.0013422418851405382,0.0,-0.003259730525314808,0.0,0.0,-0.0013422418851405382,-0.003259730525314808,-0.0025086922105401754,0.0,0.0,0.0,-0.033520109951496124,0.09577173739671707,9.74477481842041,2.019412040710449,0.7297277450561523,-0.1598827987909317,1.9351270198822021,0.8225338459014893,-0.1623990535736084,-0.0031957949977368116,-0.006391587201505899,0.0,-0.0015978968003764749,0.003195791505277157,0.0,0.0,0.0,-1.3220958709716797,0.0,0.0,0.10548637807369232,2.019412040710449,0.7297277450561523,0.3248020324517274,0.3447525533789927,1.9351270198822021,0.8225338459014893,1.2911972189134502,1.3098508954858066,-0.0001139785672653058,6.909983828235981e-05,-0.0001139785672653058,6.909983828235981e-05,5.702170701585315e-06,0.00016047695059272706,4.2989044111343956e-05,9.248995970383043e-05,-1,-1,-1,-1,167124,1,-1
1782555913.2536132,0.22588443756103516,1782555913019,1782555913.0192235,-0.00028645398147821293,0.0,-0.0013422418851405382,0.0,-0.003259730525314808,0.0,0.0,-0.0013422418851405382,-0.003259730525314808,-0.0025086922105401754,0.0,0.0,0.0,0.03830869868397713,-0.05746304616332054,9.936318397521973,2.019412040710449,0.7297784090042114,-0.1598827987909317,1.9351270198822021,0.8224351406097412,-0.1623990535736084,-0.0031957949977368116,0.011185276322066784,0.0,-0.0015978968003764749,-0.015978967770934105,0.0,0.0,0.0,-0.42897793650627136,0.0,0.0,-1.6948144435882568,2.019412040710449,0.7297784090042114,0.32480810173427443,0.34474215359545163,1.9351270198822021,0.8224351406097412,1.291226927025184,1.3097939749275407,0.00018855406417413498,-0.0005030866920968393,0.00018855406417413498,-0.0005030866920968393,0.0012128455888405758,-0.002078224484510963,0.00015997469858426713,-0.00012458148471764885,-1,-1,-1,-1,167124,1,-1
1782555913.258867,0.2311382293701172,1782555913024,1782555913.0242224,-0.00028645398147821293,0.0,-0.0013422418851405382,0.0,-0.003259730525314808,0.0,0.0,-0.0013422418851405382,-0.003259730525314808,-0.0025086922105401754,0.0,0.0,0.0,0.11492609232664108,0.03830869868397713,9.720831871032715,2.019439697265625,0.7297784090042114,-0.1598827987909317,1.935136318206787,0.8224351406097412,-0.1623990535736084,-0.0,0.011185276322066784,0.0,0.006391587201505899,-0.015978967770934105,0.0,0.0,0.0,0.021097276359796524,0.0,0.0,0.10548637807369232,2.019439697265625,0.7297784090042114,0.32480478864510043,0.34474117386343894,1.935136318206787,0.8224351406097412,1.291238366466696,1.3097979111470168,0.00029355089423777894,-0.00043855979931767025,0.00029355089423777894,-0.00043855979931767025,-0.0006627606798727202,-0.00019598864404691708,7.770116073856842e-05,-0.00013172220065057566,-1,-1,-1,-1,167124,1,-1
1782555913.2643304,0.2366015911102295,1782555913029,1782555913.0292253,-0.00028645398147821293,0.0,-0.0013422418851405382,0.0,-0.003259730525314808,0.0,0.0,-0.0013422418851405382,-0.003259730525314808,-0.0025086922105401754,0.0,0.0,0.0,-0.023942934349179268,-0.08619456738233566,9.81181526184082,2.019439697265625,0.7297784090042114,-0.1598827987909317,1.935136318206787,0.8224351406097412,-0.1623990535736084,-0.0,0.011185276322066784,0.0,0.006391587201505899,-0.015978967770934105,0.0,0.0,0.0,0.021097276359796524,0.0,0.0,0.10548637807369232,2.019439697265625,0.729753851890564,0.32480184679989754,0.34474825791561964,1.935136318206787,0.8225023746490479,1.2912239667473362,1.3098366832003683,0.0001349617966530963,-2.9141868300939285e-05,0.0001349617966530963,-2.9141868300939285e-05,-0.000588019114651469,0.001415967803931409,1.1129133199564688e-05,2.304679980762277e-05,-1,-1,-1,-1,167124,1,-1
1782555913.2689326,0.24120378494262695,1782555913034,1782555913.0342414,-0.00028645398147821293,0.0,-0.0013422418851405382,0.0,-0.003259730525314808,0.0,0.0,-0.0013422418851405382,-0.003259730525314808,-0.0025086922105401754,0.0,0.0,0.0,-0.023942934349179268,-0.08619456738233566,9.81181526184082,2.019439697265625,0.729753851890564,-0.1598827987909317,1.935136318206787,0.8225023746490479,-0.1623990535736084,-0.0,-0.004793690517544746,0.0,0.006391587201505899,0.007989483885467052,0.0,0.0,0.0,0.021097276359796524,0.0,0.0,0.43601036071777344,2.0195038318634033,0.729753851890564,0.32479416350439655,0.3447442637627653,1.9351742267608643,0.8225023746490479,1.2912504941298357,1.3098527309419044,0.00039262413107735855,0.00013227032614956526,0.00039262413107735855,0.00013227032614956526,-0.0015317304554873057,-0.0007962684202481557,-0.00014315682566912232,-5.8884722197955045e-05,-1,-1,-1,-1,167124,1,-1
1782555913.273775,0.2460463047027588,1782555913039,1782555913.0392437,-0.00028645398147821293,0.0,-0.0013422418851405382,0.0,-0.003259730525314808,0.0,0.0,-0.0013422418851405382,-0.003259730525314808,-0.0025086922105401754,0.0,0.0,0.0,0.11492609232664108,0.023942934349179268,9.840546607971191,2.0195038318634033,0.729753851890564,-0.1598827987909317,1.9351742267608643,0.8225023746490479,-0.1623990535736084,0.009587381035089493,-0.004793690517544746,0.0,0.007989483885467052,0.007989483885467052,0.0,0.0,0.0,-0.43601036071777344,0.0,0.0,0.29536187648773193,2.0195038318634033,0.7297705411911011,0.32479616290616153,0.34475318135899313,1.9351742267608643,0.8225870132446289,1.291260280419263,1.3099015395816298,0.0004708116006827843,0.0006135226714192673,0.0004708116006827843,0.0006135226714192673,0.0003996996721073024,0.0017827133849112446,-8.887117589147984e-05,0.00012527508851296488,-1,-1,-1,-1,167124,1,-1
1782555913.2791772,0.251448392868042,1782555913044,1782555913.044245,-0.00028645398147821293,0.0,-0.0013422418851405382,0.0,-0.003259730525314808,0.0,0.0,-0.0013422418851405382,-0.003259730525314808,-0.0025086922105401754,0.0,0.0,0.0,0.014365761540830135,0.0,9.81181526184082,2.0194263458251953,0.7297705411911011,-0.1598827987909317,1.9351636171340942,0.8225870132446289,-0.1623990535736084,-0.0,-0.006391586735844612,0.0,0.0,0.023968450725078583,0.0,0.0,0.0,-0.43601036071777344,0.0,0.0,0.10548637807369232,2.0194263458251953,0.7297705411911011,0.3248054455555018,0.3447542991559958,1.9351636171340942,0.8225870132446289,1.2912282304923317,1.3098970481972878,0.00012685547808391023,0.0005379444276533768,0.00012685547808391023,0.0005379444276533768,0.0018560448709728657,0.00022350099821389716,0.00010562042879495466,0.0001350976794830581,-1,-1,-1,-1,167124,1,-1
1782555913.2832892,0.25556039810180664,1782555913049,1782555913.049239,-0.00028645398147821293,0.0,-0.0013422418851405382,0.0,-0.003259730525314808,0.0,0.0,-0.0013422418851405382,-0.003259730525314808,-0.0025086922105401754,0.0,0.0,0.0,0.014365761540830135,0.0,9.81181526184082,2.0194263458251953,0.7297705411911011,-0.1598827987909317,1.9351636171340942,0.8225870132446289,-0.1623990535736084,-0.0,-0.006391586735844612,0.0,0.0,0.023968450725078583,0.0,0.0,0.0,-0.43601036071777344,0.0,0.0,0.10548637807369232,2.0194263458251953,0.7296919822692871,0.32479603437385085,0.3447465622994643,1.9351636171340942,0.8225135803222656,1.2911821652629827,1.3098547016022764,-0.00034072285495021615,8.704507487197863e-05,-0.00034072285495021615,8.704507487197863e-05,-0.0018845295924390108,-0.001549256578700774,-9.339457332844183e-05,-3.3337746335325094e-05,-1,-1,-1,-1,167124,1,-1
1782555913.2888353,0.2611064910888672,1782555913054,1782555913.054256,-0.00028645398147821293,0.0,-0.0013422418851405382,0.0,-0.003259730525314808,0.0,0.0,-0.0013422418851405382,-0.003259730525314808,-0.0025086922105401754,0.0,0.0,0.0,0.023942934349179268,-0.019154349341988564,9.807026863098145,2.0194263458251953,0.7296919822692871,-0.1598827987909317,1.9351636171340942,0.8225135803222656,-0.1623990535736084,-0.0,-0.01438107155263424,0.0,0.0,-0.0015978992450982332,0.0,0.0,0.0,0.021097276359796524,0.0,0.0,0.10548637807369232,2.019406318664551,0.7296919822692871,0.32479843362869854,0.34474433912525937,1.9351847171783447,0.8225135803222656,1.2911738816275917,1.3098636338281693,-0.0004062338375408965,0.0001717032055228451,-0.0004062338375408965,0.0001717032055228451,0.00047822098582253646,-0.00044312448132517094,-3.623301741334402e-05,-7.431641983430966e-05,-1,-1,-1,-1,167124,1,-1
1782555913.2937531,0.2660243511199951,1782555913059,1782555913.0592368,-0.00028645398147821293,0.0,-0.0013422418851405382,0.0,-0.003259730525314808,0.0,0.0,-0.0013422418851405382,-0.003259730525314808,-0.0025086922105401754,0.0,0.0,0.0,0.023942934349179268,-0.023942934349179268,9.869277954101562,2.019406318664551,0.7298080921173096,-0.1598827987909317,1.9351847171783447,0.8225619792938232,-0.1623990535736084,-0.012783174403011799,0.0,0.0,0.006391587201505899,0.012783174403011799,0.0,0.0,0.0,0.03516212850809097,0.0,0.0,-0.40788066387176514,2.019406318664551,0.7298080921173096,0.3248123429716943,0.34474943855399615,1.9351847171783447,0.8225619792938232,1.2912419656097047,1.309891544160221,0.0002975745477599844,0.00044331052338442075,0.0002975745477599844,0.00044331052338442075,0.0027925907311550295,0.0010238166841404198,0.00024664935744349325,3.549689056316325e-05,-1,-1,-1,-1,167124,1,-1
1782555913.2991269,0.27139806747436523,1782555913064,1782555913.064267,-0.00028645398147821293,0.0,-0.0013422418851405382,0.0,-0.003259730525314808,0.0,0.0,-0.0013422418851405382,-0.003259730525314808,-0.0025086922105401754,0.0,0.0,0.0,0.08140598237514496,0.07661739736795425,9.768717765808105,2.019406318664551,0.7298080921173096,-0.1598827987909317,1.9351847171783447,0.8225619792938232,-0.1623990535736084,-0.012783174403011799,0.0,0.0,0.006391587201505899,0.012783174403011799,0.0,0.0,0.0,0.03516212850809097,0.0,0.0,-0.40788066387176514,2.0194053649902344,0.7298080921173096,0.32481245721241386,0.3447535958241554,1.9351452589035034,0.8225619792938232,1.291241571143184,1.3098748402866833,0.00027877480296280337,0.0002551076391844817,0.00027877480296280337,0.0002551076391844817,2.271117200565198e-05,0.0008264695638426108,0.00022425553889970915,0.00011459415789110799,-1,-1,-1,-1,167124,1,-1
1782555913.3040624,0.2763335704803467,1782555913069,1782555913.0692508,-0.00028645398147821293,0.0,-0.0013422418851405382,0.0,-0.003259730525314808,0.0,0.0,-0.0013422418851405382,-0.003259730525314808,-0.0025086922105401754,0.0,0.0,0.0,0.023942934349179268,-0.033520109951496124,9.816603660583496,2.0194053649902344,0.7296818494796753,-0.1598827987909317,1.9351452589035034,0.8225234746932983,-0.1623990535736084,-0.003195794066414237,-0.012783174403011799,0.0,0.0015978968003764749,0.0031957942992448807,0.0,0.0,0.0,0.021097276359796524,0.0,0.0,-0.5907237529754639,2.0194053649902344,0.7296818494796753,0.3247973339741488,0.34474953903336997,1.9351452589035034,0.8225234746932983,1.2911675455073734,1.3098526358415588,-0.0004778113261599206,1.959060155222556e-05,-0.0004778113261599206,1.959060155222556e-05,-0.0030344172765106466,-0.0008139788470347902,-0.00010161174264132638,2.1736857398518188e-05,-1,-1,-1,-1,167124,1,-1
1782555913.3093786,0.2816498279571533,1782555913074,1782555913.0742772,-0.00028645398147821293,0.0,-0.0013422418851405382,0.0,-0.003259730525314808,0.0,0.0,-0.0013422418851405382,-0.003259730525314808,-0.0025086922105401754,0.0,0.0,0.0,0.019154349341988564,-0.03830869868397713,9.840546607971191,2.0194053649902344,0.7296818494796753,-0.1598827987909317,1.9351452589035034,0.8225234746932983,-0.1623990535736084,-0.003195794066414237,-0.012783174403011799,0.0,0.0015978968003764749,0.0031957942992448807,0.0,0.0,0.0,0.021097276359796524,0.0,0.0,-0.5907237529754639,2.019399642944336,0.7296818494796753,0.32479801947386805,0.34474818255536455,1.935158133506775,0.8225234746932983,1.2911651787530571,1.3098580860328184,-0.0004774642735031575,7.282736736936179e-05,-0.0004774642735031575,7.282736736936179e-05,0.00013638147303468603,-0.00026987387933066374,-7.781242107372514e-05,-7.424216274399999e-06,-1,-1,-1,-1,167124,1,-1
1782555913.3148367,0.2871079444885254,1782555913079,1782555913.079266,-0.00028645398147821293,0.0,-0.0013422418851405382,0.0,-0.003259730525314808,0.0,0.0,-0.0013422418851405382,-0.003259730525314808,-0.0025086922105401754,0.0,0.0,0.0,0.04309728369116783,-0.023942934349179268,9.81181526184082,2.019399642944336,0.7297208309173584,-0.1598827987909317,1.935158133506775,0.8225059509277344,-0.1623990535736084,-0.012783174403011799,-0.004793690517544746,0.0,0.004793690517544746,-0.003195793367922306,0.0,0.0,0.0,0.4782049357891083,0.0,0.0,-0.40788066387176514,2.019399642944336,0.7297208309173584,0.3248026893720676,0.3447463362156634,1.935158133506775,0.8225059509277344,1.291188036621441,1.3098479805706533,-0.00022450420488447667,-3.209328506311345e-05,-0.00022450420488447667,-3.209328506311345e-05,0.000936056042908999,-0.0003700888885926175,2.3574425324547244e-05,-4.3690683506221745e-05,-1,-1,-1,-1,167124,1,-1
1782555913.3195448,0.29181599617004395,1782555913084,1782555913.0842714,-0.00028645398147821293,0.0,-0.0013422418851405382,0.0,-0.003259730525314808,0.0,0.0,-0.0013422418851405382,-0.003259730525314808,-0.0025086922105401754,0.0,0.0,0.0,0.02873152308166027,0.004788587335497141,9.83096981048584,2.0193612575531006,0.7297208309173584,-0.1598827987909317,1.9351390600204468,0.8225059509277344,-0.1623990535736084,-0.012783174403011799,-0.004793690517544746,0.0,-0.004793690517544746,-0.003195793367922306,0.0,0.0,0.0,0.021097276359796524,0.0,0.0,-0.07735667377710342,2.0193612575531006,0.7297208309173584,0.32480728774812123,0.34474834583586295,1.9351390600204468,0.8225059509277344,1.2911721594952872,1.3098399062261252,-0.00037188024674899287,-0.0001111456074527525,-0.00037188024674899287,-0.0001111456074527525,0.0009186904389515727,0.00040149366682674107,0.00011308602668724976,8.277515270745236e-07,-1,-1,-1,-1,167124,1,-1
1782555913.325098,0.29736924171447754,1782555913089,1782555913.089248,-0.00028645398147821293,0.0,-0.0013422418851405382,0.0,-0.003259730525314808,0.0,0.0,-0.0013422418851405382,-0.003259730525314808,-0.0025086922105401754,0.0,0.0,0.0,0.07182881236076355,0.014365761540830135,9.725621223449707,2.0193612575531006,0.7296502590179443,-0.1598827987909317,1.9351390600204468,0.8224914073944092,-0.1623990535736084,-0.012783174403011799,-0.015978967770934105,0.0,-0.004793690517544746,-0.01438107155263424,0.0,0.0,0.0,0.021097276359796524,0.0,0.0,0.10548637807369232,2.0193612575531006,0.7296502590179443,0.3247988335014346,0.3447468135032331,1.9351390600204468,0.8224914073944092,1.2911307777678656,1.3098315193820467,-0.0007690766350714039,-0.00018985666184933794,-0.0007690766350714039,-0.00018985666184933794,-0.0016988301008298307,-0.00030791303974817723,-6.810558606445826e-05,-3.004632760045065e-05,-1,-1,-1,-1,167124,1,-1
1782555913.3288133,0.3010845184326172,1782555913094,1782555913.0942836,-0.00028645398147821293,0.0,-0.0013422418851405382,0.0,-0.003259730525314808,0.0,0.0,-0.0013422418851405382,-0.003259730525314808,-0.0025086922105401754,0.0,0.0,0.0,0.033520109951496124,-0.07182881236076355,9.869277954101562,2.0194458961486816,0.7296502590179443,-0.1598827987909317,1.9351022243499756,0.8224914073944092,-0.1623990535736084,0.004793691448867321,-0.015978967770934105,0.0,-0.0031957936007529497,-0.01438107155263424,0.0,0.0,0.0,-0.42897793650627136,0.0,0.0,-0.07735667377710342,2.0194458961486816,0.7296502590179443,0.32478869360030665,0.3447506945406677,1.9351022243499756,0.8224914073944092,1.291165785832624,1.3098159257810251,-0.00038303624416501564,-0.00033518890010209327,-0.00038303624416501564,-0.00033518890010209327,-0.002013627567854253,0.0007707140209302952,-0.0002626577842434377,5.002970725262392e-05,-1,-1,-1,-1,167124,1,-1
1782555913.333813,0.30608415603637695,1782555913099,1782555913.0992835,-0.00028645398147821293,0.0,-0.0013422418851405382,0.0,-0.003259730525314808,0.0,0.0,-0.0013422418851405382,-0.003259730525314808,-0.0025086922105401754,0.0,0.0,0.0,0.062251631170511246,-0.10534892231225967,9.76392936706543,2.0194458961486816,0.7297637462615967,-0.1598827987909317,1.9351022243499756,0.8225332498550415,-0.1623990535736084,0.004793691448867321,0.003195794764906168,0.0,-0.0031957936007529497,0.014381072483956814,0.0,0.0,0.0,0.03516212850809097,0.0,0.0,-0.5907237529754639,2.0194458961486816,0.7297637462615967,0.32480228950779483,0.34475510295922074,1.9351022243499756,0.8225332498550415,1.291232332580908,1.3098400550449132,0.00030159955191382416,-7.713083308861097e-05,0.00030159955191382416,-7.713083308861097e-05,0.002719248922858914,0.0008817055729663215,3.553288646679741e-05,0.00013319729382399366,-1,-1,-1,-1,167124,1,-1
1782555913.3403714,0.31264257431030273,1782555913104,1782555913.1042793,-0.00028645398147821293,0.0,-0.0013422418851405382,0.0,-0.003259730525314808,0.0,0.0,-0.0013422418851405382,-0.003259730525314808,-0.0025086922105401754,0.0,0.0,0.0,0.004788587335497141,0.05267446115612984,9.835758209228516,2.019406795501709,0.7297637462615967,-0.1598827987909317,1.9351658821105957,0.8225332498550415,-0.1623990535736084,-0.007989483885467052,0.003195794764906168,0.0,0.004793691448867321,0.014381072483956814,0.0,0.0,0.0,0.4782049357891083,0.0,0.0,0.43601036071777344,2.019406795501709,0.7297637462615967,0.3248069735770542,0.3447483960759756,1.9351658821105957,0.8225332498550415,1.2912161596151077,1.3098670032946005,0.00012465469136419916,0.00019643352439198804,0.00012465469136419916,0.00019643352439198804,0.0009375971380539058,-0.0013424981971223956,0.00012573931162550823,-1.4372255270645243e-05,-1,-1,-1,-1,167124,1,-1
1782555913.3446655,0.316936731338501,1782555913109,1782555913.1092913,-0.00028645398147821293,0.0,-0.0013422418851405382,0.0,-0.003259730525314808,0.0,0.0,-0.0013422418851405382,-0.003259730525314808,-0.0025086922105401754,0.0,0.0,0.0,0.05267446115612984,0.04309728369116783,9.797449111938477,2.019406795501709,0.7296888828277588,-0.1598827987909317,1.9351658821105957,0.8225268125534058,-0.1623990535736084,-0.007989483885467052,-0.01438107155263424,0.0,0.004793691448867321,0.009587382897734642,0.0,0.0,0.0,0.021097276359796524,0.0,0.0,-0.21800518035888672,2.019406795501709,0.7296888828277588,0.3247980051926501,0.3447477178328396,1.9351658821105957,0.8225268125534058,1.2911722614085432,1.309863291086293,-0.00031950598389995184,0.0001495789061292247,-0.00031950598389995184,0.0001495789061292247,-0.0017893697354911904,-0.0001353228949899076,-6.577159308616158e-05,-2.6467319242571474e-05,-1,-1,-1,-1,167124,1,-1
1782555913.3487632,0.32103443145751953,1782555913114,1782555913.1142926,-0.00028645398147821293,0.0,-0.0013422418851405382,0.0,-0.003259730525314808,0.0,0.0,-0.0013422418851405382,-0.003259730525314808,-0.0025086922105401754,0.0,0.0,0.0,0.033520109951496124,-0.05267446115612984,9.759140968322754,2.01944899559021,0.7296888828277588,-0.1598827987909317,1.935181736946106,0.8225268125534058,-0.1623990535736084,0.009587381035089493,-0.01438107155263424,0.0,0.011185277253389359,0.009587382897734642,0.0,0.0,0.0,0.0140648502856493,0.0,0.0,0.6188533902168274,2.01944899559021,0.7296888828277588,0.3247929495711915,0.3447460473302428,1.935181736946106,0.8225268125534058,1.291189716172259,1.309870002881949,-0.0001290286461104467,0.00020920038358774145,-0.0001290286461104467,0.00020920038358774145,-0.0010108601471350864,-0.0003340132394430393,-0.00016028044849105403,-5.7221911262618254e-05,-1,-1,-1,-1,167124,1,-1
1782555913.3539152,0.3261864185333252,1782555913119,1782555913.1192913,-0.00028645398147821293,0.0,-0.0013422418851405382,0.0,-0.003259730525314808,0.0,0.0,-0.0013422418851405382,-0.003259730525314808,-0.0025086922105401754,0.0,0.0,0.0,0.0,-0.004788587335497141,9.850123405456543,2.01944899559021,0.7298091650009155,-0.1598827987909317,1.935181736946106,0.8225786685943604,-0.1623990535736084,0.009587381035089493,0.019174762070178986,0.0,0.011185277253389359,0.023968448862433434,0.0,0.0,0.0,-0.4219455122947693,0.0,0.0,0.29536187648773193,2.01944899559021,0.7298091650009155,0.32480735915056097,0.3447515109255907,1.935181736946106,0.8225786685943604,1.291260247038878,1.3098999067655468,0.000582950799512638,0.0004978721998240546,0.000582950799512638,0.0004978721998240546,0.0028826746345401453,0.0010930067643883557,0.00014401505981206583,5.7800956302479115e-05,-1,-1,-1,-1,167124,1,-1
1782555913.3597777,0.3320488929748535,1782555913124,1782555913.124294,-0.00028645398147821293,0.0,-0.0013422418851405382,0.0,-0.003259730525314808,0.0,0.0,-0.0013422418851405382,-0.003259730525314808,-0.0025086922105401754,0.0,0.0,0.0,0.06704021990299225,0.0,9.778294563293457,2.0194039344787598,0.7298091650009155,-0.1598827987909317,1.935056447982788,0.8225786685943604,-0.1623990535736084,-0.004793690517544746,0.019174762070178986,0.0,-0.019174762070178986,0.023968448862433434,0.0,0.0,0.0,0.48523736000061035,0.0,0.0,0.10548637807369232,2.0194039344787598,0.7298091650009155,0.3248127570939618,0.34476471054039176,1.935056447982788,0.8225786685943604,1.2912416085518972,1.3098468678147723,0.00036752924005072833,-5.7095474666622476e-05,0.00036752924005072833,-5.7095474666622476e-05,0.0010789980268709407,0.0026384786331104435,0.0002375133565179533,0.0003158687239832755,-1,-1,-1,-1,167124,1,-1
1782555913.3637166,0.33598780632019043,1782555913129,1782555913.1293051,-0.00028645398147821293,0.0,-0.0013422418851405382,0.0,-0.003259730525314808,0.0,0.0,-0.0013422418851405382,-0.003259730525314808,-0.0025086922105401754,0.0,0.0,0.0,0.009577174670994282,0.014365761540830135,9.83096981048584,2.0194039344787598,0.7297388315200806,-0.1598827987909317,1.935056447982788,0.8223685026168823,-0.1623990535736084,-0.004793690517544746,0.001597896683961153,0.0,-0.019174762070178986,-0.022370556369423866,0.0,0.0,0.0,0.03516212850809097,0.0,0.0,0.6188533902168274,2.0194039344787598,0.7297388315200806,0.3248043316625545,0.34474256809526654,1.935056447982788,0.8223685026168823,1.2912003668327423,1.309725671609837,-6.235237852749619e-05,-0.0012635225715790157,-6.235237852749619e-05,-0.0012635225715790157,-0.0016813598179307768,-0.004418695696949242,4.562603907308033e-05,-0.0001575877181099761,-1,-1,-1,-1,167124,1,-1
1782555913.3707821,0.34305334091186523,1782555913134,1782555913.1342764,-0.00028645398147821293,0.0,-0.0013422418851405382,0.0,-0.003259730525314808,0.0,0.0,-0.0013422418851405382,-0.003259730525314808,-0.0025086922105401754,0.0,0.0,0.0,0.04309728369116783,0.004788587335497141,9.835758209228516,2.0194032192230225,0.7297388315200806,-0.1598827987909317,1.9351242780685425,0.8223685026168823,-0.1623990535736084,-0.003195794066414237,0.001597896683961153,0.0,0.0,-0.022370556369423866,0.0,0.0,0.0,0.03516212850809097,0.0,0.0,0.10548637807369232,2.0194032192230225,0.7297388315200806,0.3248044173468692,0.3447354209312345,1.9351242780685425,0.8223685026168823,1.2912000709859046,1.3097543857457359,-6.221032809838694e-05,-0.0009115453901565895,-6.221032809838694e-05,-0.0009115453901565895,1.723591501028036e-05,-0.0014376950116678812,4.2787026666800335e-05,-0.00028559844746576656,-1,-1,-1,-1,167124,1,-1
1782555913.3768594,0.34913063049316406,1782555913139,1782555913.1393154,-0.00028645398147821293,0.0,-0.0013422418851405382,0.0,-0.003259730525314808,0.0,0.0,-0.0013422418851405382,-0.003259730525314808,-0.0025086922105401754,0.0,0.0,0.0,0.004788587335497141,-0.05746304616332054,9.749563217163086,2.0194032192230225,0.7297143936157227,-0.1598827987909317,1.9351242780685425,0.8224985599517822,-0.1623990535736084,-0.003195794066414237,-0.0015978976152837276,0.0,0.0,0.009587381035089493,0.0,0.0,0.0,0.021097276359796524,0.0,0.0,-0.07735667377710342,2.0194032192230225,0.7297143936157227,0.3248014897766161,0.3447491245554594,1.9351242780685425,0.8224985599517822,1.2911857411633618,1.309829386437085,-0.0002012963481052201,-0.00012172732447202441,-0.0002012963481052201,-0.00012172732447202441,-0.0005809850779698903,0.0027195252378094214,-1.9590183796868716e-05,1.4913921061752175e-05,-1,-1,-1,-1,167124,1,-1
1782555913.3830554,0.35532665252685547,1782555913144,1782555913.1443028,-0.00028645398147821293,0.0,-0.0013422418851405382,0.0,-0.003259730525314808,0.0,0.0,-0.0013422418851405382,-0.003259730525314808,-0.0025086922105401754,0.0,0.0,0.0,0.014365761540830135,0.023942934349179268,9.893220901489258,2.0193846225738525,0.7297143936157227,-0.1598827987909317,1.935126781463623,0.8224985599517822,-0.1623990535736084,-0.01438107155263424,-0.0015978976152837276,0.0,0.0,0.009587381035089493,0.0,0.0,0.0,-0.43601036071777344,0.0,0.0,0.29536187648773193,2.0193846225738525,0.7297143936157227,0.32480371759045323,0.344748860796111,1.935126781463623,0.8224985599517822,1.2911780491630998,1.3098304461966435,-0.00026834096537301964,-0.00010501726380416988,-0.00026834096537301964,-0.00010501726380416988,0.0004466814134676691,-5.288431044056961e-05,2.7036975929585053e-05,8.134097911519997e-06,-1,-1,-1,-1,167124,1,-1
1782555913.3855243,0.35779547691345215,1782555913149,1782555913.1493294,-0.00028645398147821293,0.0,-0.0013422418851405382,0.0,-0.003259730525314808,0.0,0.0,-0.0013422418851405382,-0.003259730525314808,-0.0025086922105401754,0.0,0.0,0.0,0.062251631170511246,-0.062251631170511246,9.754352569580078,2.0193846225738525,0.7297358512878418,-0.1598827987909317,1.935126781463623,0.822425365447998,-0.1623990535736084,-0.01438107155263424,-0.006391586735844612,0.0,0.0,-0.01757686212658882,0.0,0.0,0.0,-0.43601036071777344,0.0,0.0,0.10548637807369232,2.0193846225738525,0.7297358512878418,0.3248062881110271,0.3447411487420096,1.935126781463623,0.822425365447998,1.2911906314229202,1.3097882369139249,-0.00012976662759603112,-0.0005196273391514002,-0.00012976662759603112,-0.0005196273391514002,0.000511385700561826,-0.0015342550569486084,7.547184839280914e-05,-0.0001461048175744928,-1,-1,-1,-1,167124,1,-1
1782555913.3901732,0.3624444007873535,1782555913154,1782555913.1543107,-0.00028645398147821293,0.0,-0.0013422418851405382,0.0,-0.003259730525314808,0.0,0.0,-0.0013422418851405382,-0.003259730525314808,-0.0025086922105401754,0.0,0.0,0.0,0.004788587335497141,0.09577173739671707,9.802238464355469,2.0194125175476074,0.7297358512878418,-0.1598827987909317,1.9350831508636475,0.822425365447998,-0.1623990535736084,-0.0,-0.006391586735844612,0.0,-0.01438107155263424,-0.01757686212658882,0.0,0.0,0.0,0.021097276359796524,0.0,0.0,0.43601036071777344,2.0194125175476074,0.7297358512878418,0.32480294642720814,0.34474574588391194,1.9350831508636475,0.822425365447998,1.291202169453188,1.3097697669263826,-7.464371684861947e-06,-0.0006790399860467518,-7.464371684861947e-06,-0.0006790399860467518,-0.0006708485046904881,0.0009228837730082451,8.398130844794346e-07,-3.920595851621902e-05,-1,-1,-1,-1,167124,1,-1
1782555913.3939734,0.3662445545196533,1782555913159,1782555913.159342,-0.00028645398147821293,0.0,-0.0013422418851405382,0.0,-0.003259730525314808,0.0,0.0,-0.0013422418851405382,-0.003259730525314808,-0.0025086922105401754,0.0,0.0,0.0,0.06704021990299225,-0.11013750731945038,9.797449111938477,2.0194125175476074,0.7296733856201172,-0.1598827987909317,1.9350831508636475,0.8224557638168335,-0.1623990535736084,-0.0,-0.009587381035089493,0.0,-0.01438107155263424,-0.011185278184711933,0.0,0.0,0.0,0.4782049357891083,0.0,0.0,0.10548637807369232,2.0194125175476074,0.7296733856201172,0.32479546311803964,0.3447489487159524,1.9350831508636475,0.8224557638168335,1.2911655409041864,1.3097872968085411,-0.0003710945402774672,-0.00047088134584727403,-0.0003710945402774672,-0.00047088134584727403,-0.0014873370411160375,0.0006365754271278911,-0.00014797787233557222,2.8372180048191978e-05,-1,-1,-1,-1,167124,1,-1
1782555913.401766,0.3740372657775879,1782555913164,1782555913.1643407,-0.00028645398147821293,0.0,-0.0013422418851405382,0.0,-0.003259730525314808,0.0,0.0,-0.0013422418851405382,-0.003259730525314808,-0.0025086922105401754,0.0,0.0,0.0,-0.004788587335497141,-0.047885868698358536,9.783082962036133,2.0194101333618164,0.7296733856201172,-0.1598827987909317,1.9351284503936768,0.8224557638168335,-0.1623990535736084,-0.004793690517544746,-0.009587381035089493,0.0,0.0,-0.011185278184711933,0.0,0.0,0.0,-0.4219455122947693,0.0,0.0,-0.07735667377710342,2.0194101333618164,0.7296733856201172,0.3247957487461691,0.34474417583980116,1.9351284503936768,0.8224557638168335,1.2911645547591808,1.3098064733611046,-0.000362403859676352,-0.0002555212642386726,-0.000362403859676352,-0.0002555212642386726,5.714066612598102e-05,-0.0009548265540726795,-0.0001274660184894169,-6.994769336389515e-05,-1,-1,-1,-1,167124,1,-1
1782555913.4091718,0.3814430236816406,1782555913169,1782555913.1693554,-0.00028645398147821293,0.0,-0.0013422418851405382,0.0,-0.003259730525314808,0.0,0.0,-0.0013422418851405382,-0.003259730525314808,-0.0025086922105401754,0.0,0.0,0.0,-0.004788587335497141,-0.047885868698358536,9.783082962036133,2.0194101333618164,0.7296733856201172,-0.1598827987909317,1.9351284503936768,0.8224557638168335,-0.1623990535736084,-0.004793690517544746,-0.009587381035089493,0.0,0.0,-0.011185278184711933,0.0,0.0,0.0,-0.4219455122947693,0.0,0.0,-0.07735667377710342,2.0194101333618164,0.7297574281692505,0.3248058168516373,0.34474118642415186,1.9351284503936768,0.8224273920059204,1.2912138354654465,1.3097901120788693,0.00014705954765868978,-0.0004058720231348995,0.00014705954765868978,-0.0004058720231348995,0.002007735227382775,-0.0005961355020932867,8.605410609780223e-05,-0.0001225664742368343,-1,-1,-1,-1,167124,1,-1
1782555913.4113495,0.3836207389831543,1782555913174,1782555913.1743438,-0.00028645398147821293,0.0,-0.0013422418851405382,0.0,-0.003259730525314808,0.0,0.0,-0.0013422418851405382,-0.003259730525314808,-0.0025086922105401754,0.0,0.0,0.0,0.014365761540830135,0.014365761540830135,9.926741600036621,2.0194101333618164,0.7297574281692505,-0.1598827987909317,1.9351284503936768,0.8224273920059204,-0.1623990535736084,-0.004793690517544746,0.0031957942992448807,0.0,0.0,-0.019174760207533836,0.0,0.0,0.0,0.021097276359796524,0.0,0.0,0.6188533902168274,2.019454002380371,0.7297574281692505,0.32480056151280995,0.344740721676979,1.9351328611373901,0.8224273920059204,1.2912319807104955,1.3097919792585107,0.0003215971918755677,-0.0003668615369382031,0.0003215971918755677,-0.0003668615369382031,-0.0010535051696627786,-9.316498236880699e-05,-2.7901821478255824e-05,-0.00011962632505003156,-1,-1,-1,-1,167124,1,-1
1782555913.4156072,0.38787841796875,1782555913179,1782555913.1793563,-0.00028645398147821293,0.0,-0.0013422418851405382,0.0,-0.003259730525314808,0.0,0.0,-0.0013422418851405382,-0.003259730525314808,-0.0025086922105401754,0.0,0.0,0.0,-0.04309728369116783,0.033520109951496124,9.821392059326172,2.019454002380371,0.7297619581222534,-0.1598827987909317,1.9351328611373901,0.8224314451217651,-0.1623990535736084,0.009587381035089493,0.011185278184711933,0.0,0.0,-0.011185278184711933,0.0,0.0,0.0,0.4782049357891083,0.0,0.0,0.10548637807369232,2.019454002380371,0.7297619581222534,0.3248011041906863,0.3447411487420096,1.9351328611373901,0.8224314451217651,1.2912346369753935,1.309794316587692,0.000332012415484879,-0.0003252046214836956,0.000332012415484879,-0.0003252046214836956,0.00010826464933036689,8.519979861954403e-05,-1.4285174397393555e-05,-9.914371268307401e-05,-1,-1,-1,-1,167124,1,-1
1782555913.419004,0.39127516746520996,1782555913184,1782555913.1843572,-0.00028645398147821293,0.0,-0.0013422418851405382,0.0,-0.003259730525314808,0.0,0.0,-0.0013422418851405382,-0.003259730525314808,-0.0025086922105401754,0.0,0.0,0.0,0.07661739736795425,-0.019154349341988564,9.759140968322754,2.019397735595703,0.7297619581222534,-0.1598827987909317,1.9351298809051514,0.8224314451217651,-0.1623990535736084,-0.004793690517544746,0.011185278184711933,0.0,0.0015978968003764749,-0.011185278184711933,0.0,0.0,0.0,0.021097276359796524,0.0,0.0,0.10548637807369232,2.019397735595703,0.7297619581222534,0.32480784468640844,0.3447414627595325,1.9351298809051514,0.8224314451217651,1.2912113636878455,1.30979305497936,8.272862571783894e-05,-0.00032155777921922233,8.272862571783894e-05,-0.00032155777921922233,0.0013478754788717085,6.279308473218468e-05,0.00012193089092951661,-8.295003294154814e-05,-1,-1,-1,-1,167124,1,-1
1782555913.4271321,0.39940333366394043,1782555913189,1782555913.1893692,-0.00028645398147821293,0.0,-0.0013422418851405382,0.0,-0.003259730525314808,0.0,0.0,-0.0013422418851405382,-0.003259730525314808,-0.0025086922105401754,0.0,0.0,0.0,0.05746304616332054,-0.09577173739671707,9.854912757873535,2.019397735595703,0.7297179698944092,-0.1598827987909317,1.9351298809051514,0.8225024938583374,-0.1623990535736084,-0.004793690517544746,-0.004793690517544746,0.0,0.0015978968003764749,0.003195794066414237,0.0,0.0,0.0,0.03516212850809097,0.0,0.0,-0.07735667377710342,2.019397735595703,0.7297179698944092,0.32480257512522215,0.3447489487159524,1.9351298809051514,0.8225024938583374,1.291185570060058,1.309834026850045,-0.00017873694358081665,0.00010327440568844778,-0.00017873694358081665,0.00010327440568844778,-0.0010513814842506878,0.001493596087712091,4.599653411496203e-06,7.470457912381574e-05,-1,-1,-1,-1,167124,1,-1
1782555913.4287567,0.4010279178619385,1782555913194,1782555913.1943595,-0.00028645398147821293,0.0,-0.0013422418851405382,0.0,-0.003259730525314808,0.0,0.0,-0.0013422418851405382,-0.003259730525314808,-0.0025086922105401754,0.0,0.0,0.0,-0.05267446115612984,0.014365761540830135,9.835758209228516,2.019399881362915,0.7297179698944092,-0.1598827987909317,1.9350799322128296,0.8225024938583374,-0.1623990535736084,-0.004793690517544746,-0.004793690517544746,0.0,-0.01438107155263424,0.003195794066414237,0.0,0.0,0.0,0.03516212850809097,0.0,0.0,0.10548637807369232,2.019399881362915,0.7297179698944092,0.3248023180695577,0.34475421123972094,1.9350799322128296,0.8225024938583374,1.2911864575983705,1.3098128820661359,-0.00016090753156050924,-0.0001137464922970192,-0.00016090753156050924,-0.0001137464922970192,-5.151065890324206e-05,0.0010545422814227223,-1.011377819977622e-06,0.00017268834935370636,-1,-1,-1,-1,167124,1,-1
1782555913.4352567,0.4075279235839844,1782555913199,1782555913.1993685,-0.00028645398147821293,0.0,-0.0013422418851405382,0.0,-0.003259730525314808,0.0,0.0,-0.0013422418851405382,-0.003259730525314808,-0.0025086922105401754,0.0,0.0,0.0,0.07182881236076355,-0.06704021990299225,9.840546607971191,2.019399881362915,0.729712724685669,-0.1598827987909317,1.9350799322128296,0.8224903345108032,-0.1623990535736084,-0.004793690517544746,-0.0015978969167917967,0.0,-0.01438107155263424,-0.0031957952305674553,0.0,0.0,0.0,0.021097276359796524,0.0,0.0,0.10548637807369232,2.019399881362915,0.729712724685669,0.32480168970973994,0.34475293016735176,1.9350799322128296,0.8224903345108032,1.2911833819264924,1.3098058701469304,-0.00018356400385888404,-0.00017805326728535388,-0.00018356400385888404,-0.00017805326728535388,-0.00012544776510983299,-0.00025575738789878895,-1.3455016548963155e-05,0.00012984377562845684,-1,-1,-1,-1,167124,1,-1
1782555913.4407017,0.41297292709350586,1782555913204,1782555913.2043726,-0.00028645398147821293,0.0,-0.0013422418851405382,0.0,-0.003259730525314808,0.0,0.0,-0.0013422418851405382,-0.003259730525314808,-0.0025086922105401754,0.0,0.0,0.0,0.06704021990299225,0.17717772722244263,9.773506164550781,2.019442081451416,0.729712724685669,-0.1598827987909317,1.935099720954895,0.8224903345108032,-0.1623990535736084,0.007989483885467052,-0.0015978969167917967,0.0,-0.004793691448867321,-0.0031957952305674553,0.0,0.0,0.0,0.021097276359796524,0.0,0.0,0.10548637807369232,2.019442081451416,0.729712724685669,0.32479663419052485,0.3447508452582646,1.935099720954895,0.8224903345108032,1.2912008367729129,1.3098142473193979,2.560323497435629e-08,-8.544465769210461e-05,2.560323497435629e-08,-8.544465769210461e-05,-0.0010102617783569827,-0.0004166345478049842,-0.00011313569272976509,7.519594328511277e-05,-1,-1,-1,-1,167124,1,-1
1782555913.4437788,0.4160499572753906,1782555913209,1782555913.2093532,-0.00028645398147821293,0.0,-0.0013422418851405382,0.0,-0.003259730525314808,0.0,0.0,-0.0013422418851405382,-0.003259730525314808,-0.0025086922105401754,0.0,0.0,0.0,0.0,-0.16760054230690002,9.754352569580078,2.019442081451416,0.7298051118850708,-0.1598827987909317,1.935099720954895,0.8224921226501465,-0.1623990535736084,0.007989483885467052,0.019174762070178986,0.0,-0.004793691448867321,-9.313225746154785e-10,0.0,0.0,0.0,0.03516212850809097,0.0,0.0,0.10548637807369232,2.019442081451416,0.7298051118850708,0.3248077018818818,0.3447510336550185,1.935099720954895,0.8224921226501465,1.2912550105308807,1.3098152784860795,0.0005438499172030785,-7.08210138236027e-05,0.0005438499172030785,-7.08210138236027e-05,0.0022221762627673497,3.7826388633407404e-05,0.00012039550281994634,7.145898781994224e-05,-1,-1,-1,-1,167124,1,-1
1782555913.448863,0.42113423347473145,1782555913214,1782555913.2143385,-0.00028645398147821293,0.0,-0.0013422418851405382,0.0,-0.003259730525314808,0.0,0.0,-0.0013422418851405382,-0.003259730525314808,-0.0025086922105401754,0.0,0.0,0.0,0.047885868698358536,0.004788587335497141,9.888432502746582,2.0194172859191895,0.7298051118850708,-0.1598827987909317,1.9351284503936768,0.8224921226501465,-0.1623990535736084,-0.0,0.019174762070178986,0.0,-0.0031957936007529497,-9.313225746154785e-10,0.0,0.0,0.0,0.4993022084236145,0.0,0.0,-0.40788066387176514,2.0194172859191895,0.7298051118850708,0.32481067219298415,0.34474800671460165,1.9351284503936768,0.8224921226501465,1.2912447544437118,1.3098274404953723,0.0004137948019341774,5.469795227816241e-05,0.0004137948019341774,5.469795227816241e-05,0.0005958100305050647,-0.0006071692156025963,0.00016793695558845817,3.596167477688399e-06,-1,-1,-1,-1,167124,1,-1
1782555913.4539042,0.4261753559112549,1782555913219,1782555913.21938,-0.00028645398147821293,0.0,-0.0013422418851405382,0.0,-0.003259730525314808,0.0,0.0,-0.0013422418851405382,-0.003259730525314808,-0.0025086922105401754,0.0,0.0,0.0,0.03830869868397713,-0.009577174670994282,9.716043472290039,2.0194172859191895,0.7297137975692749,-0.1598827987909317,1.9351284503936768,0.8224542140960693,-0.1623990535736084,-0.0,-0.0,0.0,-0.0031957936007529497,-0.014381070621311665,0.0,0.0,0.0,0.021097276359796524,0.0,0.0,0.43601036071777344,2.0194172859191895,0.7297137975692749,0.32479973321188194,0.3447440125541409,1.9351284503936768,0.8224542140960693,1.291191209947738,1.3098055796785952,-0.0001379469448794162,-0.00016485158532420716,-0.0001379469448794162,-0.00016485158532420716,-0.0021698468759965145,-0.000792278231128867,-6.584142757003905e-05,-7.599127238296712e-05,-1,-1,-1,-1,167124,1,-1
1782555913.4604661,0.4327373504638672,1782555913224,1782555913.2243874,-0.00028645398147821293,0.0,-0.0013422418851405382,0.0,-0.003259730525314808,0.0,0.0,-0.0013422418851405382,-0.003259730525314808,-0.0025086922105401754,0.0,0.0,0.0,0.019154349341988564,0.009577174670994282,9.936318397521973,2.0194571018218994,0.7297137975692749,-0.1598827987909317,1.9351577758789062,0.8224542140960693,-0.1623990535736084,0.009587381035089493,-0.0,0.0,-0.0031957936007529497,-0.014381070621311665,0.0,0.0,0.0,0.0140648502856493,0.0,0.0,0.10548637807369232,2.0194571018218994,0.7297137975692749,0.32479496326773555,0.3447409226489303,1.9351577758789062,0.8224542140960693,1.2912076786062325,1.3098179939197374,3.3390149538771696e-05,-3.265266344122417e-05,3.3390149538771696e-05,-3.265266344122417e-05,-0.000952558958861628,-0.0006170547914286912,-0.00015451318069919793,-0.0001300976242875395,-1,-1,-1,-1,167124,1,-1
1782555913.4641237,0.43639492988586426,1782555913229,1782555913.2293665,-0.00028645398147821293,0.0,-0.0013422418851405382,0.0,-0.003259730525314808,0.0,0.0,-0.0013422418851405382,-0.003259730525314808,-0.0025086922105401754,0.0,0.0,0.0,0.07661739736795425,0.023942934349179268,9.711255073547363,2.0194571018218994,0.7298188209533691,-0.1598827987909317,1.9351577758789062,0.822550892829895,-0.1623990535736084,0.009587381035089493,0.02077265828847885,0.0,-0.0031957936007529497,0.007989482954144478,0.0,0.0,0.0,-0.4219455122947693,0.0,0.0,0.10548637807369232,2.0194571018218994,0.7298188209533691,0.3248075447967731,0.34475110901364475,1.9351577758789062,0.822550892829895,1.2912692619873136,1.3098737458767216,0.0006501352695324541,0.0005288359747740621,0.0006501352695324541,0.0005288359747740621,0.002526851061496918,0.002045810681252154,0.00011362324352041358,8.749320626642981e-05,-1,-1,-1,-1,167124,1,-1
1782555913.4724174,0.4446885585784912,1782555913234,1782555913.2343915,-0.00028645398147821293,0.0,-0.0013422418851405382,0.0,-0.003259730525314808,0.0,0.0,-0.0013422418851405382,-0.003259730525314808,-0.0025086922105401754,0.0,0.0,0.0,0.014365761540830135,-0.1292918473482132,9.83096981048584,2.019399881362915,0.7298188209533691,-0.1598827987909317,1.9351189136505127,0.822550892829895,-0.1623990535736084,-0.006391587201505899,0.02077265828847885,0.0,-0.007989483885467052,0.007989482954144478,0.0,0.0,0.0,-0.42897793650627136,0.0,0.0,-0.40788066387176514,2.019399881362915,0.7298188209533691,0.3248143992936839,0.3447552034342794,1.9351189136505127,0.822550892829895,1.2912455940395255,1.3098572942992266,0.0003821223187353835,0.00033869395470906554,0.0003821223187353835,0.00033869395470906554,0.0013641034262154967,0.0008148246747764168,0.00023867126178992186,0.0001602263531174285,-1,-1,-1,-1,167124,1,-1
1782555913.473777,0.4460482597351074,1782555913239,1782555913.2393668,-0.00028645398147821293,0.0,-0.0013422418851405382,0.0,-0.003259730525314808,0.0,0.0,-0.0013422418851405382,-0.003259730525314808,-0.0025086922105401754,0.0,0.0,0.0,0.023942934349179268,0.09577173739671707,9.854912757873535,2.019399881362915,0.7297158241271973,-0.1598827987909317,1.9351189136505127,0.822458028793335,-0.1623990535736084,-0.006391587201505899,-0.007989483885467052,0.0,-0.007989483885467052,-0.004793689586222172,0.0,0.0,0.0,0.021097276359796524,0.0,0.0,-0.9212477803230286,2.019399881362915,0.7297158241271973,0.3248020610135306,0.3447454193162761,1.9351189136505127,0.822458028793335,1.2911851993691779,1.309803742350281,-0.00024392650234317828,-0.00021641678689734653,-0.00024392650234317828,-0.00021641678689734653,-0.0024798973452206828,-0.0019665308260329952,-3.318559891113854e-05,-5.2449364797613814e-05,-1,-1,-1,-1,167124,1,-1
1782555913.480066,0.45233726501464844,1782555913244,1782555913.2444048,-0.00028645398147821293,0.0,-0.0013422418851405382,0.0,-0.003259730525314808,0.0,0.0,-0.0013422418851405382,-0.003259730525314808,-0.0025086922105401754,0.0,0.0,0.0,0.11013750731945038,-0.014365761540830135,9.735198020935059,2.019482135772705,0.7297158241271973,-0.1598827987909317,1.9351242780685425,0.822458028793335,-0.1623990535736084,0.01757686585187912,-0.007989483885467052,0.0,-0.0031957936007529497,-0.004793689586222172,0.0,0.0,0.0,0.04219455271959305,0.0,0.0,-0.40788066387176514,2.019482135772705,0.7297158241271973,0.32479220692571387,0.34474485410114974,1.9351242780685425,0.822458028793335,1.2912192214387292,1.3098060132544198,0.00010592280277412552,-0.00018305829596781264,0.00010592280277412552,-0.00018305829596781264,-0.00195594339813831,-0.00011218986632863462,-0.00022546137883385566,-5.84234149507159e-05,-1,-1,-1,-1,167124,1,-1
1782555913.484724,0.45699524879455566,1782555913249,1782555913.249403,-0.00028645398147821293,0.0,-0.0013422418851405382,0.0,-0.003259730525314808,0.0,0.0,-0.0013422418851405382,-0.003259730525314808,-0.0025086922105401754,0.0,0.0,0.0,-0.06704021990299225,0.03830869868397713,9.840546607971191,2.019482135772705,0.7297389507293701,-0.1598827987909317,1.9351242780685425,0.8223762512207031,-0.1623990535736084,0.01757686585187912,0.009587381966412067,0.0,-0.0031957936007529497,-0.02876214124262333,0.0,0.0,0.0,0.03516212850809097,0.0,0.0,-0.40788066387176514,2.019482135772705,0.7297389507293701,0.3247949775491918,0.34473623741068726,1.9351242780685425,0.8223762512207031,1.2912327824591179,1.3097588541867706,0.00023627904055126584,-0.0006456427197748084,0.00023627904055126584,-0.0006456427197748084,0.0005543234657478977,-0.0017239562713961705,-0.00014748289437568034,-0.00022497670059526132,-1,-1,-1,-1,167124,1,-1
1782555913.4895477,0.4618189334869385,1782555913254,1782555913.2544057,-0.00028645398147821293,0.0,-0.0013422418851405382,0.0,-0.003259730525314808,0.0,0.0,-0.0013422418851405382,-0.003259730525314808,-0.0025086922105401754,0.0,0.0,0.0,0.1436576247215271,-0.1532347947359085,9.83096981048584,2.019418716430664,0.7297389507293701,-0.1598827987909317,1.935172438621521,0.8223762512207031,-0.1623990535736084,0.004793690517544746,0.009587381966412067,0.0,0.009587381035089493,-0.02876214124262333,0.0,0.0,0.0,-0.4219455122947693,0.0,0.0,-0.40788066387176514,2.019418716430664,0.7297389507293701,0.32480257512522215,0.34473116259496217,1.935172438621521,0.8223762512207031,1.291206550895019,1.3097792416144718,-3.7707037068757647e-05,-0.0004095978483414264,-3.7707037068757647e-05,-0.0004095978483414264,0.0015186838647688436,-0.0010144078489738308,1.913378153877202e-05,-0.00030391981543311826,-1,-1,-1,-1,167124,1,-1
1782555913.494407,0.4666781425476074,1782555913259,1782555913.2594218,-0.00028645398147821293,0.0,-0.0013422418851405382,0.0,-0.003259730525314808,0.0,0.0,-0.0013422418851405382,-0.003259730525314808,-0.0025086922105401754,0.0,0.0,0.0,-0.004788587335497141,0.062251631170511246,9.826181411743164,2.019418716430664,0.7297128438949585,-0.1598827987909317,1.935172438621521,0.8225297927856445,-0.1623990535736084,0.004793690517544746,0.009587381035089493,0.0,0.009587381035089493,0.011185278184711933,0.0,0.0,0.0,0.0140648502856493,0.0,0.0,0.10548637807369232,2.019418716430664,0.7297128438949585,0.3247994475899991,0.34474734102959037,1.935172438621521,0.8225297927856445,1.2911912424234802,1.3098677852584306,-0.000188415400242903,0.0004934785553905483,-0.000188415400242903,0.0004934785553905483,-0.0006235008078364655,0.0032253088585388226,-4.512967739875171e-05,4.900305196407572e-05,-1,-1,-1,-1,167124,1,-1
1782555913.4990926,0.47136378288269043,1782555913264,1782555913.2644207,-0.00028645398147821293,0.0,-0.0013422418851405382,0.0,-0.003259730525314808,0.0,0.0,-0.0013422418851405382,-0.003259730525314808,-0.0025086922105401754,0.0,0.0,0.0,0.05746304616332054,-0.047885868698358536,9.773506164550781,2.0194337368011475,0.7297128438949585,-0.1598827987909317,1.9351327419281006,0.8225297927856445,-0.1623990535736084,-0.0015978968003764749,0.009587381035089493,0.0,-0.006391587201505899,0.011185278184711933,0.0,0.0,0.0,0.03516212850809097,0.0,0.0,0.2461348921060562,2.0194337368011475,0.7297128438949585,0.32479764816184026,0.34475152348531934,1.9351327419281006,0.8225297927856445,1.2911974551605205,1.3098509804919565,-0.00011685090272096053,0.0003007127187171641,-0.00011685090272096053,0.0003007127187171641,-0.00035996321478730045,0.0008366714739284458,-7.661303113760658e-05,0.0001277698941605127,-1,-1,-1,-1,167124,1,-1
1782555913.5042973,0.47656846046447754,1782555913269,1782555913.2694263,-0.00028645398147821293,0.0,-0.0013422418851405382,0.0,-0.003259730525314808,0.0,0.0,-0.0013422418851405382,-0.003259730525314808,-0.0025086922105401754,0.0,0.0,0.0,0.05267446115612984,0.014365761540830135,9.835758209228516,2.0194337368011475,0.7298036813735962,-0.1598827987909317,1.9351327419281006,0.8225088119506836,-0.1623990535736084,-0.0015978968003764749,0.015978969633579254,0.0,-0.006391587201505899,-0.009587381035089493,0.0,0.0,0.0,0.021097276359796524,0.0,0.0,-0.40788066387176514,2.0194337368011475,0.7298036813735962,0.32480853014657823,0.3447493129546711,1.9351327419281006,0.8225088119506836,1.2912507201528838,1.3098388814646933,0.00042104587087216257,0.0001648221210140702,0.00042104587087216257,0.0001648221210140702,0.00217396294900841,-0.0004416116951692208,0.00014844456687699502,7.083173522753937e-05,-1,-1,-1,-1,167124,1,-1
1782555913.5087693,0.48104047775268555,1782555913274,1782555913.2744284,-0.00028645398147821293,0.0,-0.0013422418851405382,0.0,-0.003259730525314808,0.0,0.0,-0.0013422418851405382,-0.003259730525314808,-0.0025086922105401754,0.0,0.0,0.0,0.05267446115612984,0.014365761540830135,9.835758209228516,2.0194337368011475,0.7298036813735962,-0.1598827987909317,1.9351327419281006,0.8225088119506836,-0.1623990535736084,-0.0015978968003764749,0.015978969633579254,0.0,-0.006391587201505899,-0.009587381035089493,0.0,0.0,0.0,0.021097276359796524,0.0,0.0,-0.40788066387176514,2.019444704055786,0.7298036813735962,0.32480721634565357,0.3447505940621741,1.9351205825805664,0.8225088119506836,1.2912552564914683,1.3098337340559272,0.00044533862754430047,0.00010512773284384325,0.00044533862754430047,0.00010512773284384325,-0.0002626539787186134,0.0002561179372913482,0.00010733471231743418,8.936035543392025e-05,-1,-1,-1,-1,167124,1,-1
1782555913.5136268,0.4858980178833008,1782555913279,1782555913.279449,-0.00028645398147821293,0.0,-0.0013422418851405382,0.0,-0.003259730525314808,0.0,0.0,-0.0013422418851405382,-0.003259730525314808,-0.0025086922105401754,0.0,0.0,0.0,0.009577174670994282,-0.02873152308166027,9.878854751586914,2.0194649696350098,0.7298344373703003,-0.1598827987909317,1.9351205825805664,0.8225106000900269,-0.1623990535736084,0.006391587201505899,0.02876214124262333,0.0,0.0,0.004793690517544746,0.0,0.0,0.0,-0.42897793650627136,0.0,0.0,0.29536187648773193,2.0194649696350098,0.7298344373703003,0.324808473024996,0.3447507824592868,1.9351205825805664,0.8225106000900269,1.2912816733818595,1.3098347652228086,0.0006861557236988616,0.00011014066754147923,0.0006861557236988616,0.00011014066754147923,0.0002503036942080184,3.7524682464447275e-05,0.0001216316105064926,8.417678813697295e-05,-1,-1,-1,-1,167124,1,-1
1782555913.5191638,0.49143505096435547,1782555913284,1782555913.2843964,-0.00028645398147821293,0.0,-0.0013422418851405382,0.0,-0.003259730525314808,0.0,0.0,-0.0013422418851405382,-0.003259730525314808,-0.0025086922105401754,0.0,0.0,0.0,0.05267446115612984,0.0,9.7926607131958,2.0194649696350098,0.7298344373703003,-0.1598827987909317,1.9351837635040283,0.8225106000900269,-0.1623990535736084,0.006391587201505899,0.02876214124262333,0.0,0.006391587201505899,0.004793690517544746,0.0,0.0,0.0,0.0140648502856493,0.0,0.0,0.10548637807369232,2.0194649696350098,0.7298344373703003,0.324808473024996,0.3447441255980811,1.9351837635040283,0.8225106000900269,1.2912816733818595,1.3098615114922345,0.0006518479375139185,0.0003749516699188592,0.0006518479375139185,0.0003749516699188592,0.0,-0.0013455206776811289,0.00010946844945584334,-5.879295844483721e-05,-1,-1,-1,-1,167124,1,-1
1782555913.5239482,0.4962193965911865,1782555913289,1782555913.2894425,-0.00028645398147821293,0.0,-0.0013422418851405382,0.0,-0.003259730525314808,0.0,0.0,-0.0013422418851405382,-0.003259730525314808,-0.0025086922105401754,0.0,0.0,0.0,-0.023942934349179268,-0.05746304616332054,9.7926607131958,2.0193934440612793,0.7298116683959961,-0.1598827987909317,1.9351837635040283,0.8225778341293335,-0.1623990535736084,-0.012783174403011799,0.015978967770934105,0.0,0.006391587201505899,0.007989482954144478,0.0,0.0,0.0,0.021097276359796524,0.0,0.0,-0.40788066387176514,2.0193934440612793,0.7298116683959961,0.32481431361406454,0.344751209491746,1.9351837635040283,0.8225778341293335,1.2912387373327874,1.309900283457314,0.0001938401518840278,0.0007403612446492715,0.0001938401518840278,0.0007403612446492715,0.0011574394562995176,0.0014038272399808213,0.00021426555014021073,8.74690613977286e-05,-1,-1,-1,-1,167124,1,-1
1782555913.5286903,0.5009615421295166,1782555913294,1782555913.294426,-0.00028645398147821293,0.0,-0.0013422418851405382,0.0,-0.003259730525314808,0.0,0.0,-0.0013422418851405382,-0.003259730525314808,-0.0025086922105401754,0.0,0.0,0.0,0.0,0.0,9.874066352844238,2.0193934440612793,0.7298116683959961,-0.1598827987909317,1.9351837635040283,0.8225778341293335,-0.1623990535736084,-0.012783174403011799,0.015978967770934105,0.0,0.006391587201505899,0.007989482954144478,0.0,0.0,0.0,0.021097276359796524,0.0,0.0,-0.40788066387176514,2.0193934440612793,0.7298116683959961,0.32481431361406454,0.3447544749883698,1.9351527690887451,0.8225778341293335,1.2912387373327874,1.3098871625716157,0.0001841481442898264,0.0005716979251033178,0.0001841481442898264,0.0005716979251033178,0.0,0.0006552715314949276,0.00019283899512618965,0.0001442493084074485,-1,-1,-1,-1,167124,1,-1
1782555913.5337427,0.5060138702392578,1782555913299,1782555913.2994528,-0.00028645398147821293,0.0,-0.0013422418851405382,0.0,-0.003259730525314808,0.0,0.0,-0.0013422418851405382,-0.003259730525314808,-0.0025086922105401754,0.0,0.0,0.0,0.0,0.0,9.874066352844238,2.0193934440612793,0.7298116683959961,-0.1598827987909317,1.9351527690887451,0.8225778341293335,-0.1623990535736084,-0.012783174403011799,0.015978967770934105,0.0,-0.006391587201505899,0.007989482954144478,0.0,0.0,0.0,0.021097276359796524,0.0,0.0,-0.40788066387176514,2.0194509029388428,0.7296662330627441,0.32479000753481185,0.3447499660698549,1.9351527690887451,0.8225350379943848,1.29117722364689,1.3098624833400854,-0.0004368854398619966,0.00029764895598879655,-0.0004368854398619966,0.00029764895598879655,-0.004835281987946899,-0.0008969728212234314,-0.0003099731031811191,4.0127095444360535e-05,-1,-1,-1,-1,167124,1,-1
1782555913.5392365,0.5115077495574951,1782555913304,1782555913.3044355,-0.00028645398147821293,0.0,-0.0013422418851405382,0.0,-0.003259730525314808,0.0,0.0,-0.0013422418851405382,-0.003259730525314808,-0.0025086922105401754,0.0,0.0,0.0,0.0,-0.009577174670994282,9.797449111938477,2.0194509029388428,0.7296662330627441,-0.1598827987909317,1.935164213180542,0.8225350379943848,-0.1623990535736084,0.011185277253389359,-0.01438107155263424,0.0,0.009587381035089493,0.0,0.0,0.0,0.0,-0.4219455122947693,0.0,0.0,-0.40788066387176514,2.0194509029388428,0.7296662330627441,0.32479000753481185,0.3447487603162205,1.935164213180542,0.8225350379943848,1.29117722364689,1.3098673279570958,-0.00041504116786889673,0.0003313831138582824,-0.00041504116786889673,0.0003313831138582824,0.0,-0.00024198752533291677,-0.0002789757928630072,1.1915633366632812e-05,-1,-1,-1,-1,167124,1,-1
1782555913.5438573,0.5161285400390625,1782555913309,1782555913.309458,-0.00028645398147821293,0.0,-0.0013422418851405382,0.0,-0.003259730525314808,0.0,0.0,-0.0013422418851405382,-0.003259730525314808,-0.0025086922105401754,0.0,0.0,0.0,0.0,-0.009577174670994282,9.797449111938477,2.0194509029388428,0.7296662330627441,-0.1598827987909317,1.935164213180542,0.8225350379943848,-0.1623990535736084,0.011185277253389359,-0.01438107155263424,0.0,0.009587381035089493,0.0,0.0,0.0,0.0,-0.4219455122947693,0.0,0.0,-0.40788066387176514,2.0194509029388428,0.7297625541687012,0.3248015469003882,0.34475566813043007,1.935164213180542,0.8226006031036377,1.2912337044858397,1.3099051373649166,0.00016798614147537527,0.0006912123025604809,0.00016798614147537527,0.0006912123025604809,0.002297522414998327,0.0013753665988102306,-2.1325972076873792e-05,0.00014826072991099256,-1,-1,-1,-1,167124,1,-1
1782555913.5485184,0.520789623260498,1782555913314,1782555913.314435,-0.00028645398147821293,0.0,-0.0013422418851405382,0.0,-0.003259730525314808,0.0,0.0,-0.0013422418851405382,-0.003259730525314808,-0.0025086922105401754,0.0,0.0,0.0,0.019154349341988564,-0.02873152308166027,9.787872314453125,2.0194509029388428,0.7297625541687012,-0.1598827987909317,1.935164213180542,0.8226006031036377,-0.1623990535736084,0.011185277253389359,0.012783174403011799,0.0,0.009587381035089493,0.015978967770934105,0.0,0.0,0.0,0.03516212850809097,0.0,0.0,-0.40788066387176514,2.01944899559021,0.7297625541687012,0.32480177539529725,0.34475905910682486,1.9351320266723633,0.8226006031036377,1.2912329155636921,1.3098915117650423,0.00015166075574057233,0.0005197591223861039,0.00015166075574057233,0.0005197591223861039,4.591028076669056e-05,0.000681331058997594,-1.4602346792517358e-05,0.0002015677628196527,-1,-1,-1,-1,167124,1,-1
1782555913.5535665,0.5258376598358154,1782555913319,1782555913.3194695,-0.00028645398147821293,0.0,-0.0013422418851405382,0.0,-0.003259730525314808,0.0,0.0,-0.0013422418851405382,-0.003259730525314808,-0.0025086922105401754,0.0,0.0,0.0,0.047885868698358536,0.07661739736795425,9.850123405456543,2.01944899559021,0.7297625541687012,-0.1598827987909317,1.9351320266723633,0.8226006031036377,-0.1623990535736084,0.006391587201505899,0.012783174403011799,0.0,-0.004793690517544746,0.015978967770934105,0.0,0.0,0.0,0.4782049357891083,0.0,0.0,0.6188533902168274,2.019409656524658,0.7297524213790894,0.32480527418779936,0.3447473661498405,1.9351320266723633,0.8224896192550659,1.2912107023747448,1.309827510798544,-7.652385247461802e-05,-0.0001418293209889597,-7.652385247461802e-05,-0.0001418293209889597,0.0006949706093375,-0.0023225902752153542,5.6354948820484356e-05,-5.084804098384792e-05,-1,-1,-1,-1,167124,1,-1
1782555913.560703,0.5329742431640625,1782555913324,1782555913.3244529,-0.00028645398147821293,0.0,-0.0013422418851405382,0.0,-0.003259730525314808,0.0,0.0,-0.0013422418851405382,-0.003259730525314808,-0.0025086922105401754,0.0,0.0,0.0,0.08140598237514496,-0.06704021990299225,9.778294563293457,2.019409656524658,0.7297524213790894,-0.1598827987909317,1.9351311922073364,0.8224896192550659,-0.1623990535736084,-0.004793691448867321,0.011185277253389359,0.0,-0.0031957936007529497,-0.0015978969167917967,0.0,0.0,0.0,0.03516212850809097,0.0,0.0,-0.40788066387176514,2.019409656524658,0.7297524213790894,0.32480527418779936,0.34474745407067814,1.9351311922073364,0.8224896192550659,1.2912107023747448,1.3098271575459453,-7.269765985088712e-05,-0.00013828213009943924,-7.269765985088712e-05,-0.00013828213009943924,0.0,1.7642652430638362e-05,5.071945393843592e-05,-4.39989716423993e-05,-1,-1,-1,-1,167124,1,-1
1782555913.5638452,0.536116361618042,1782555913329,1782555913.329465,-0.00028645398147821293,0.0,-0.0013422418851405382,0.0,-0.003259730525314808,0.0,0.0,-0.0013422418851405382,-0.003259730525314808,-0.0025086922105401754,0.0,0.0,0.0,-0.019154349341988564,-0.047885868698358536,9.797449111938477,2.0194461345672607,0.7297747135162354,-0.1598827987909317,1.9351311922073364,0.8225448131561279,-0.1623990535736084,0.0015978965675458312,0.011185276322066784,0.0,-0.0031957936007529497,0.007989483885467052,0.0,0.0,0.0,0.021097276359796524,0.0,0.0,-0.40788066387176514,2.0194461345672607,0.7297747135162354,0.32480357478269123,0.34475326927595457,1.9351311922073364,0.8225448131561279,1.2912388621412134,1.3098589862383716,0.00021185868907847567,0.00018615460022488778,0.00021185868907847567,0.00018615460022488778,-0.0003390648674090307,0.0011602482519141501,1.1741021803689267e-05,7.642575071325561e-05,-1,-1,-1,-1,167124,1,-1
1782555913.5691674,0.5414385795593262,1782555913334,1782555913.3344705,-0.00028645398147821293,0.0,-0.0013422418851405382,0.0,-0.003259730525314808,0.0,0.0,-0.0013422418851405382,-0.003259730525314808,-0.0025086922105401754,0.0,0.0,0.0,0.033520109951496124,-0.033520109951496124,9.7926607131958,2.0194461345672607,0.7297747135162354,-0.1598827987909317,1.935204029083252,0.8225448131561279,-0.1623990535736084,0.0015978965675458312,0.011185276322066784,0.0,0.006391587201505899,0.007989483885467052,0.0,0.0,0.0,0.0140648502856493,0.0,0.0,0.10548637807369232,2.0194461345672607,0.7297747135162354,0.32480357478269123,0.3447455951604882,1.935204029083252,0.8225448131561279,1.2912388621412134,1.309889820209289,0.00020126575462455187,0.00048484174412356524,0.00020126575462455187,0.00048484174412356524,0.0,-0.0015331066061950427,1.056691962332034e-05,-8.452748497757417e-05,-1,-1,-1,-1,167124,1,-1
1782555913.5743423,0.5466134548187256,1782555913339,1782555913.3394487,-0.00028645398147821293,0.0,-0.0013422418851405382,0.0,-0.003259730525314808,0.0,0.0,-0.0013422418851405382,-0.003259730525314808,-0.0025086922105401754,0.0,0.0,0.0,0.07182881236076355,0.023942934349179268,9.883644104003906,2.0194075107574463,0.7297426462173462,-0.1598827987909317,1.935204029083252,0.8226118087768555,-0.1623990535736084,-0.004793690517544746,-0.0015978974988684058,0.0,0.006391587201505899,0.01757686398923397,0.0,0.0,0.0,-0.42897793650627136,0.0,0.0,-0.07735667377710342,2.0194075107574463,0.7297426462173462,0.3248043602239972,0.3447526538559937,1.935204029083252,0.8226118087768555,1.291204082914399,1.309928454641714,-0.00015811422406680433,0.0008486373831099155,-0.00015811422406680433,0.0008486373831099155,0.000157776801317031,0.0014179269537098627,2.5287907792691404e-05,6.571795889116948e-05,-1,-1,-1,-1,167124,1,-1
1782555913.5808415,0.5531127452850342,1782555913344,1782555913.3444479,-0.00028645398147821293,0.0,-0.0013422418851405382,0.0,-0.003259730525314808,0.0,0.0,-0.0013422418851405382,-0.003259730525314808,-0.0025086922105401754,0.0,0.0,0.0,0.014365761540830135,0.004788587335497141,9.754352569580078,2.0194075107574463,0.7297426462173462,-0.1598827987909317,1.935153841972351,0.8226118087768555,-0.1623990535736084,-0.004793690517544746,-0.0015978974988684058,0.0,-0.007989482954144478,0.01757686398923397,0.0,0.0,0.0,-0.43601036071777344,0.0,0.0,-0.07735667377710342,2.0194075107574463,0.7297426462173462,0.3248043602239972,0.3447579413501652,1.935153841972351,0.8226118087768555,1.291204082914399,1.3099072088450634,-0.0001502085128634641,0.0005937118810973155,-0.0001502085128634641,0.0005937118810973155,0.0,0.001057676361765903,2.2759117013422264e-05,0.00016491379917864282,-1,-1,-1,-1,167124,1,-1
1782555913.5853422,0.5576133728027344,1782555913349,1782555913.3494837,-0.00028645398147821293,0.0,-0.0013422418851405382,0.0,-0.003259730525314808,0.0,0.0,-0.0013422418851405382,-0.003259730525314808,-0.0025086922105401754,0.0,0.0,0.0,0.05746304616332054,-0.03830869868397713,9.845335006713867,2.0194008350372314,0.7296901941299438,-0.1598827987909317,1.935153841972351,0.822542667388916,-0.1623990535736084,-0.004793690517544746,-0.004793690517544746,0.0,-0.007989482954144478,-0.012783171609044075,0.0,0.0,0.0,0.021097276359796524,0.0,0.0,0.10548637807369232,2.0194008350372314,0.7296901941299438,0.3247988763448901,0.3447506568612417,1.935153841972351,0.822542667388916,1.2911705649574963,1.3098673371700222,-0.00047548972794706255,0.0001681501244824827,-0.00047548972794706255,0.0001681501244824827,-0.00108896203364409,-0.0014465183708848514,-8.841299805232894e-05,3.7705821722934453e-06,-1,-1,-1,-1,167124,1,-1
1782555913.5905397,0.5628108978271484,1782555913354,1782555913.3544989,-0.00028645398147821293,0.0,-0.0013422418851405382,0.0,-0.003259730525314808,0.0,0.0,-0.0013422418851405382,-0.003259730525314808,-0.0025086922105401754,0.0,0.0,0.0,-0.004788587335497141,-0.02873152308166027,9.783082962036133,2.0194008350372314,0.7297796010971069,-0.1598827987909317,1.9351555109024048,0.822542667388916,-0.1623990535736084,-0.004793690517544746,0.004793690517544746,0.0,-0.004793690517544746,-0.012783171609044075,0.0,0.0,0.0,0.48523736000061035,0.0,0.0,0.10548637807369232,2.0194008350372314,0.7297796010971069,0.3248095868926199,0.34475048102377737,1.9351555109024048,0.822542667388916,1.2912229910767548,1.3098680436775647,7.096382122743887e-05,0.00016678637250463837,7.096382122743887e-05,0.00016678637250463837,0.0021356450290192694,-3.506136343763295e-05,0.00013399280465483087,-1.1261238869919354e-07,-1,-1,-1,-1,167124,1,-1
1782555913.593886,0.5661571025848389,1782555913360,1782555913.359502,-0.00028645398147821293,0.0,-0.0013422418851405382,0.0,-0.003259730525314808,0.0,0.0,-0.0013422418851405382,-0.003259730525314808,-0.0025086922105401754,0.0,0.0,0.0,0.05746304616332054,0.023942934349179268,9.840546607971191,2.0193986892700195,0.7297796010971069,-0.1598827987909317,1.9351555109024048,0.8224928379058838,-0.1623990535736084,-0.004793690517544746,0.004793690517544746,0.0,-0.004793690517544746,-0.009587381966412067,0.0,0.0,0.0,0.4782049357891083,0.0,0.0,-0.40788066387176514,2.0193986892700195,0.7297796010971069,0.3248098439380274,0.3447452309115031,1.9351555109024048,0.8224928379058838,1.2912221035301468,1.309839308431026,5.8545865362487223e-05,-0.00012872082674526142,5.8545865362487223e-05,-0.00012872082674526142,5.137605818060855e-05,-0.0010493479586546552,0.00012573113000740864,-0.00010503614701529477,-1,-1,-1,-1,167124,1,-1
1782555913.5998347,0.572105884552002,1782555913365,1782555913.3645024,-0.00028645398147821293,0.0,-0.0013422418851405382,0.0,-0.003259730525314808,0.0,0.0,-0.0013422418851405382,-0.003259730525314808,-0.0025086922105401754,0.0,0.0,0.0,0.014365761540830135,0.04309728369116783,9.83096981048584,2.0193986892700195,0.729770302772522,-0.1598827987909317,1.9351147413253784,0.8224928379058838,-0.1623990535736084,-0.004793690517544746,0.001597896683961153,0.0,-0.0015978969167917967,-0.009587381966412067,0.0,0.0,0.0,0.021097276359796524,0.0,0.0,0.10548637807369232,2.0193986892700195,0.729770302772522,0.32480873007197525,0.3447495264734524,1.9351147413253784,0.8224928379058838,1.2912166512387444,1.3098220495189137,1.0969059726309926e-06,-0.0002948699563704208,1.0969059726309926e-06,-0.0002948699563704208,-0.00022275749001511146,0.0008590517649468354,9.088226800515664e-05,-8.627355819081783e-06,-1,-1,-1,-1,167124,1,-1
1782555913.603971,0.576242208480835,1782555913369,1782555913.3694928,-0.00028645398147821293,0.0,-0.0013422418851405382,0.0,-0.003259730525314808,0.0,0.0,-0.0013422418851405382,-0.003259730525314808,-0.0025086922105401754,0.0,0.0,0.0,0.05267446115612984,-0.019154349341988564,9.807026863098145,2.0194311141967773,0.729770302772522,-0.1598827987909317,1.9351147413253784,0.8223801851272583,-0.1623990535736084,-0.0031957936007529497,0.001597896683961153,0.0,-0.0015978969167917967,-0.01438107155263424,0.0,0.0,0.0,0.021097276359796524,0.0,0.0,0.10548637807369232,2.0194311141967773,0.729770302772522,0.324804845767838,0.34473765681678525,1.9351147413253784,0.8223801851272583,1.2912300630036693,1.3097570856497833,0.00013541292650482903,-0.000930991679622302,0.00013541292650482903,-0.000930991679622302,-0.0007783647403363047,-0.0023785269904785964,3.957567171010532e-06,-0.0002456173192850332,-1,-1,-1,-1,167124,1,-1
1782555913.6094728,0.5817439556121826,1782555913375,1782555913.374532,-0.00028645398147821293,0.0,-0.0013422418851405382,0.0,-0.003259730525314808,0.0,0.0,-0.0013422418851405382,-0.003259730525314808,-0.0025086922105401754,0.0,0.0,0.0,0.014365761540830135,0.014365761540830135,9.840546607971191,2.0194311141967773,0.729770302772522,-0.1598827987909317,1.935077428817749,0.8223801851272583,-0.1623990535736084,-0.0031957936007529497,0.001597896683961153,0.0,-0.015978967770934105,-0.01438107155263424,0.0,0.0,0.0,-0.43601036071777344,0.0,0.0,-0.5907237529754639,2.0194311141967773,0.729770302772522,0.324804845767838,0.3447415883663323,1.935077428817749,0.8223801851272583,1.2912300630036693,1.3097412903414039,0.00012864228017958759,-0.0010411659911683923,0.00012864228017958759,-0.0010411659911683923,0.0,0.0007801908587865577,3.5618104539094784e-06,-0.00014303650147787415,-1,-1,-1,-1,167124,1,-1
1782555913.6159723,0.5882434844970703,1782555913380,1782555913.3795035,-0.00028645398147821293,0.0,-0.0013422418851405382,0.0,-0.003259730525314808,0.0,0.0,-0.0013422418851405382,-0.003259730525314808,-0.0025086922105401754,0.0,0.0,0.0,0.07661739736795425,-0.03830869868397713,9.749563217163086,2.0194458961486816,0.7297470569610596,-0.1598827987909317,1.935077428817749,0.8225157260894775,-0.1623990535736084,0.001597897382453084,4.656612873077393e-10,0.0,-0.015978967770934105,0.001597898080945015,0.0,0.0,0.0,-0.43601036071777344,0.0,0.0,0.10548637807369232,2.0194458961486816,0.7297470569610596,0.32480029017326556,0.3447558690796097,1.935077428817749,0.8225157260894775,1.2912225463458666,1.309819452909154,4.66091209252819e-05,-0.00020296417195906453,4.66091209252819e-05,-0.00020296417195906453,-0.0009163412880138172,0.0028725135633183305,-8.842849939286316e-05,0.00015851850500174625,-1,-1,-1,-1,167124,1,-1
1782555913.619232,0.5915031433105469,1782555913385,1782555913.3845186,-0.00028645398147821293,0.0,-0.0013422418851405382,0.0,-0.003259730525314808,0.0,0.0,-0.0013422418851405382,-0.003259730525314808,-0.0025086922105401754,0.0,0.0,0.0,0.014365761540830135,0.009577174670994282,9.835758209228516,2.0194458961486816,0.7297738790512085,-0.1598827987909317,1.9351357221603394,0.8225157260894775,-0.1623990535736084,0.001597897382453084,0.001597897382453084,0.0,-0.004793690517544746,0.001597898080945015,0.0,0.0,0.0,0.03516212850809097,0.0,0.0,0.6188533902168274,2.0194458961486816,0.7297738790512085,0.3248035033787682,0.3447497274319896,1.9351357221603394,0.8225157260894775,1.291238274214953,1.3098441302661152,0.00020107526171470464,5.3201190593624766e-05,0.00020107526171470464,5.3201190593624766e-05,0.000640701720582258,-0.0012246226374855093,-1.5515477395351064e-05,2.0204390753020718e-05,-1,-1,-1,-1,167124,1,-1
1782555913.6240609,0.5963320732116699,1782555913390,1782555913.3895023,-0.00028645398147821293,0.0,-0.0013422418851405382,0.0,-0.003259730525314808,0.0,0.0,-0.0013422418851405382,-0.003259730525314808,-0.0025086922105401754,0.0,0.0,0.0,0.014365761540830135,-0.03830869868397713,9.797449111938477,2.0194599628448486,0.7297738790512085,-0.1598827987909317,1.9351357221603394,0.8224939107894897,-0.1623990535736084,0.007989483885467052,0.001597897382453084,0.0,-0.004793690517544746,-0.009587381966412067,0.0,0.0,0.0,-0.42897793650627136,0.0,0.0,-0.07735667377710342,2.0194599628448486,0.7297738790512085,0.32480181823806076,0.3447474289504448,1.9351357221603394,0.8224939107894897,1.291244092523271,1.3098315500096864,0.0002493953058612815,-7.567381382523626e-05,0.0002493953058612815,-7.567381382523626e-05,-0.0003381329191834289,-0.0004612031927161995,-4.777722157415884e-05,-2.793636759390129e-05,-1,-1,-1,-1,167124,1,-1
1782555913.629303,0.601574182510376,1782555913395,1782555913.3945296,-0.00028645398147821293,0.0,-0.0013422418851405382,0.0,-0.003259730525314808,0.0,0.0,-0.0013422418851405382,-0.003259730525314808,-0.0025086922105401754,0.0,0.0,0.0,0.03830869868397713,-0.02873152308166027,9.874066352844238,2.0194599628448486,0.7297217845916748,-0.1598827987909317,1.9351778030395508,0.8224939107894897,-0.1623990535736084,0.007989483885467052,-0.004793690517544746,0.0,0.0,-0.009587381966412067,0.0,0.0,0.0,0.021097276359796524,0.0,0.0,0.10548637807369232,2.0194599628448486,0.7297217845916748,0.3247955773693451,0.3447429951543197,1.9351778030395508,0.8224939107894897,1.2912135454177853,1.3098493639924522,-6.688705244948026e-05,0.0001052825487110592,-6.688705244948026e-05,0.0001052825487110592,-0.0012413971648253567,-0.000881944836508124,-0.0001671392158992786,-0.00011333721448532355,-1,-1,-1,-1,167124,1,-1
1782555913.6338422,0.6061134338378906,1782555913400,1782555913.3995237,-0.00028645398147821293,0.0,-0.0013422418851405382,0.0,-0.003259730525314808,0.0,0.0,-0.0013422418851405382,-0.003259730525314808,-0.0025086922105401754,0.0,0.0,0.0,0.07661739736795425,-0.009577174670994282,9.807026863098145,2.019448757171631,0.7297217845916748,-0.1598827987909317,1.9351778030395508,0.822502613067627,-0.1623990535736084,0.007989483885467052,-0.004793690517544746,0.0,0.0,-0.004793690517544746,0.0,0.0,0.0,-0.42897793650627136,0.0,0.0,-0.5907237529754639,2.019448757171631,0.7297217845916748,0.32479691981681846,0.34474391207055716,1.9351778030395508,0.822502613067627,1.2912089105324278,1.309854382365946,-0.00010994580813501634,0.00015026089995702138,-0.00010994580813501634,0.00015026089995702138,0.0002688037813179849,0.00018359791103001924,-0.00012354491617755226,-8.364370193378928e-05,-1,-1,-1,-1,167124,1,-1
1782555913.642464,0.6147351264953613,1782555913405,1782555913.4045382,-0.00028645398147821293,0.0,-0.0013422418851405382,0.0,-0.003259730525314808,0.0,0.0,-0.0013422418851405382,-0.003259730525314808,-0.0025086922105401754,0.0,0.0,0.0,0.0,-0.023942934349179268,9.807026863098145,2.019448757171631,0.7297194004058838,-0.1598827987909317,1.9351439476013184,0.822502613067627,-0.1623990535736084,0.007989483885467052,0.001597896683961153,0.0,0.003195792669430375,-0.004793690517544746,0.0,0.0,0.0,0.021097276359796524,0.0,0.0,-0.5907237529754639,2.019448757171631,0.7297194004058838,0.32479663419052485,0.34474747919090676,1.9351439476013184,0.822502613067627,1.2912075124931277,1.3098400504291865,-0.00011838870845807146,-1.5938086839602196e-07,-0.00011838870845807146,-1.5938086839602196e-07,-5.696098829508706e-05,0.0007113725347477183,-0.00011688652338930574,-4.142078265638547e-06,-1,-1,-1,-1,167124,1,-1
1782555913.6438107,0.616081953048706,1782555913410,1782555913.4095407,-0.00028645398147821293,0.0,-0.0013422418851405382,0.0,-0.003259730525314808,0.0,0.0,-0.0013422418851405382,-0.003259730525314808,-0.0025086922105401754,0.0,0.0,0.0,0.009577174670994282,-0.08619456738233566,9.854912757873535,2.0194530487060547,0.7297194004058838,-0.1598827987909317,1.9351439476013184,0.8224601745605469,-0.1623990535736084,0.009587381035089493,0.001597896683961153,0.0,0.003195792669430375,-0.001597898779436946,0.0,0.0,0.0,-0.42897793650627136,0.0,0.0,-0.40788066387176514,2.0194530487060547,0.7297194004058838,0.324796120062068,0.34474300771485916,1.9351439476013184,0.8224601745605469,1.2912092875558985,1.3098155772990863,-9.472835686566728e-05,-0.0002447488179917033,-9.472835686566728e-05,-0.0002447488179917033,-0.00010277433243425076,-0.0008938485307566777,-0.00011547530429380024,-9.311272351474243e-05,-1,-1,-1,-1,167124,1,-1
1782555913.6511924,0.6234636306762695,1782555913415,1782555913.414544,-0.00028645398147821293,0.0,-0.0013422418851405382,0.0,-0.003259730525314808,0.0,0.0,-0.0013422418851405382,-0.003259730525314808,-0.0025086922105401754,0.0,0.0,0.0,0.019154349341988564,-0.019154349341988564,9.816603660583496,2.0194530487060547,0.7297497987747192,-0.1598827987909317,1.9351367950439453,0.8224601745605469,-0.1623990535736084,0.009587381035089493,0.006391587667167187,0.0,0.0015978968003764749,-0.001597898779436946,0.0,0.0,0.0,0.021097276359796524,0.0,0.0,-0.5907237529754639,2.0194530487060547,0.7297497987747192,0.32479976177404557,0.34474376134503804,1.9351367950439453,0.8224601745605469,1.2912271125381567,1.3098125494324757,8.814338236331138e-05,-0.0002627705932848649,8.814338236331138e-05,-0.0002627705932848649,0.000727839851064504,0.00015062203725197616,-3.1143788757969824e-05,-6.873924743807058e-05,-1,-1,-1,-1,167124,1,-1
1782555913.65412,0.6263911724090576,1782555913420,1782555913.4195447,-0.00028645398147821293,0.0,-0.0013422418851405382,0.0,-0.003259730525314808,0.0,0.0,-0.0013422418851405382,-0.003259730525314808,-0.0025086922105401754,0.0,0.0,0.0,0.047885868698358536,0.014365761540830135,9.821392059326172,2.0194499492645264,0.7297497987747192,-0.1598827987909317,1.9351367950439453,0.8224654197692871,-0.1623990535736084,0.003195794066414237,0.006391587667167187,0.0,0.0015978968003764749,-0.0031957938335835934,0.0,0.0,0.0,0.4782049357891083,0.0,0.0,-0.07735667377710342,2.0194499492645264,0.7297497987747192,0.3248001330817656,0.34474431400443284,1.9351367950439453,0.8224654197692871,1.291225830542492,1.309815574204178,7.091838357985636e-05,-0.00021938936505158882,7.091838357985636e-05,-0.00021938936505158882,7.425276319683451e-05,0.0001105188094908955,-2.060413356248939e-05,-5.081344174517398e-05,-1,-1,-1,-1,167124,1,-1
1782555913.6587348,0.6310060024261475,1782555913425,1782555913.42455,-0.00028645398147821293,0.0,-0.0013422418851405382,0.0,-0.003259730525314808,0.0,0.0,-0.0013422418851405382,-0.003259730525314808,-0.0025086922105401754,0.0,0.0,0.0,0.0,0.023942934349179268,9.7926607131958,2.0194499492645264,0.7297422885894775,-0.1598827987909317,1.9351325035095215,0.8224654197692871,-0.1623990535736084,0.003195794066414237,4.656612873077393e-10,0.0,0.0,-0.0031957938335835934,0.0,0.0,0.0,0.0140648502856493,0.0,0.0,-0.26723217964172363,2.0194499492645264,0.7297422885894775,0.32479923337329314,0.344744766178579,1.9351325035095215,0.8224654197692871,1.2912214267303057,1.3098137574820057,2.3379402265789134e-05,-0.0002265685298528243,2.3379402265789134e-05,-0.0002265685298528243,-0.00017974901613862322,9.033799323740332e-05,-3.651862182010277e-05,-3.669829824691625e-05,-1,-1,-1,-1,167124,1,-1
1782555913.6640277,0.6362988948822021,1782555913430,1782555913.429556,-0.00028645398147821293,0.0,-0.0013422418851405382,0.0,-0.003259730525314808,0.0,0.0,-0.0013422418851405382,-0.003259730525314808,-0.0025086922105401754,0.0,0.0,0.0,0.04309728369116783,-0.047885868698358536,9.783082962036133,2.019447088241577,0.7297422885894775,-0.1598827987909317,1.9351325035095215,0.822425127029419,-0.1623990535736084,0.007989483885467052,4.656612873077393e-10,0.0,0.0,-0.007989483885467052,0.0,0.0,0.0,0.03516212850809097,0.0,0.0,0.10548637807369232,2.019447088241577,0.7297422885894775,0.3247995761199019,0.34474052070472144,1.9351325035095215,0.822425127029419,1.2912202433505178,1.3097905217107608,1.0390431728438339e-05,-0.0004473269015012218,1.0390431728438339e-05,-0.0004473269015012218,6.846939760497507e-05,-0.0008481047810409286,-2.601981987759499e-05,-0.00011783894652631747,-1,-1,-1,-1,167124,1,-1
